t,ax,ay,az
0,-2.4000000000000004,-2.4000000000000004,-2.4000000000000004
0.1,70.4,-68.8,59.2
0.2,68.0,-62.400000000000006,52.800000000000004
0.30000000000000004,70.4,-64.0,54.400000000000006
0.4,70.4,-67.2,56.0
0.5,70.4,-69.60000000000001,58.400000000000006
0.6000000000000001,70.4,-70.4,58.400000000000006
0.7000000000000001,70.4,-70.4,58.400000000000006
0.8,70.4,-70.4,57.6
0.9,70.4,-70.4,56.800000000000004
1.0,70.4,-70.4,56.0
1.1,70.4,-67.2,55.2
1.2000000000000002,70.4,-61.6,56.800000000000004
1.3,70.4,-55.2,63.2
1.4000000000000001,70.4,-52.800000000000004,70.4
1.5,70.4,-57.6,70.4
1.6,70.4,-68.0,70.4
1.7000000000000002,70.4,-70.4,60.0
1.8,70.4,-64.8,52.800000000000004
1.9000000000000001,70.4,-51.2,61.6
2.0,70.4,-54.400000000000006,70.4
2.1,68.8,-68.8,62.400000000000006
2.2,70.4,-61.6,48.800000000000004
2.3000000000000003,70.4,-46.400000000000006,60.0
2.4000000000000004,63.2,-56.800000000000004,64.0
2.5,68.0,-60.800000000000004,45.6
2.6,70.4,-42.400000000000006,50.400000000000006
2.7,54.400000000000006,-48.800000000000004,56.0
2.8000000000000003,59.2,-51.2,37.6
2.9000000000000004,58.400000000000006,-35.2,45.6
3.0,44.800000000000004,-46.400000000000006,44.0
3.1,35.2,-26.400000000000002,20.0
3.2,10.4,-10.4,11.200000000000001
3.3000000000000003,-8.8,3.2,-7.2
3.4000000000000004,-19.200000000000003,8.0,-15.200000000000001
3.5,-20.0,13.600000000000001,-18.400000000000002
3.6,-26.400000000000002,13.600000000000001,-18.400000000000002
3.7,-26.400000000000002,16.0,-25.6
3.8000000000000003,-31.200000000000003,21.6,-23.200000000000003
3.9000000000000004,-70.4,70.4,-70.4
4.0,-30.400000000000002,23.200000000000003,-28.0
4.1000000000000005,-33.6,19.200000000000003,-23.200000000000003
4.2,-29.6,16.8,-27.200000000000003
4.3,-27.200000000000003,20.0,-21.6
4.4,-29.6,14.4,-21.6
4.5,-24.0,15.200000000000001,-23.200000000000003
4.6000000000000005,-25.6,16.0,-18.400000000000002
4.7,-25.6,12.0,-20.0
4.800000000000001,-21.6,14.4,-20.0
4.9,-23.200000000000003,13.600000000000001,-16.8
5.0,-22.400000000000002,10.4,-18.400000000000002
5.1000000000000005,-19.200000000000003,12.8,-17.6
5.2,-20.8,12.0,-15.200000000000001
5.300000000000001,-20.0,9.600000000000001,-16.8
5.4,-18.400000000000002,12.0,-16.8
5.5,-20.0,10.4,-14.4
5.6000000000000005,-19.200000000000003,8.8,-16.0
5.7,-16.8,10.4,-16.0
5.800000000000001,-18.400000000000002,10.4,-13.600000000000001
5.9,-18.400000000000002,8.0,-15.200000000000001
6.0,-16.0,9.600000000000001,-16.0
6.1000000000000005,-17.6,9.600000000000001,-13.600000000000001
6.2,-17.6,8.0,-14.4
6.300000000000001,-16.0,8.8,-15.200000000000001
6.4,-16.0,9.600000000000001,-12.8
6.5,-16.8,8.0,-12.8
6.6000000000000005,-16.0,7.2,-14.4
6.7,-15.200000000000001,8.8,-13.600000000000001
6.800000000000001,-16.0,8.0,-12.0
6.9,-16.0,6.4,-13.600000000000001
7.0,-14.4,8.0,-13.600000000000001
7.1000000000000005,-15.200000000000001,8.8,-12.0
7.2,-16.0,7.2,-12.0
7.300000000000001,-14.4,7.2,-13.600000000000001
7.4,-14.4,8.0,-12.0
7.5,-15.200000000000001,7.2,-11.200000000000001
7.6000000000000005,-15.200000000000001,6.4,-12.8
7.7,-13.600000000000001,7.2,-12.8
7.800000000000001,-14.4,8.0,-11.200000000000001
7.9,-15.200000000000001,6.4,-11.200000000000001
8.0,-14.4,6.4,-12.8
8.1,-12.8,7.2,-12.0
8.200000000000001,-13.600000000000001,7.2,-11.200000000000001
8.3,-14.4,6.4,-11.200000000000001
8.4,-13.600000000000001,5.6000000000000005,-12.8
8.5,-12.8,7.2,-12.0
8.6,-13.600000000000001,7.2,-10.4
8.700000000000001,-14.4,5.6000000000000005,-11.200000000000001
8.8,-12.8,5.6000000000000005,-12.0
8.9,-12.8,7.2,-11.200000000000001
9.0,-13.600000000000001,6.4,-10.4
9.1,-13.600000000000001,5.6000000000000005,-11.200000000000001
9.200000000000001,-12.8,5.6000000000000005,-12.0
9.3,-12.0,6.4,-11.200000000000001
9.4,-12.8,6.4,-10.4
9.5,-12.8,5.6000000000000005,-10.4
9.600000000000001,-12.8,5.6000000000000005,-11.200000000000001
9.700000000000001,-12.0,6.4,-11.200000000000001
9.8,-12.0,6.4,-10.4
9.9,-12.8,5.6000000000000005,-9.600000000000001
10.0,-12.0,4.800000000000001,-10.4
10.100000000000001,-11.200000000000001,5.6000000000000005,-11.200000000000001
10.200000000000001,-11.200000000000001,6.4,-10.4
10.3,-12.0,5.6000000000000005,-9.600000000000001
10.4,-12.0,4.800000000000001,-10.4
10.5,-11.200000000000001,4.800000000000001,-10.4
10.600000000000001,-11.200000000000001,5.6000000000000005,-10.4
10.700000000000001,-11.200000000000001,5.6000000000000005,-9.600000000000001
10.8,-12.0,4.800000000000001,-9.600000000000001
10.9,-11.200000000000001,4.800000000000001,-10.4
11.0,-11.200000000000001,4.800000000000001,-10.4
11.100000000000001,-11.200000000000001,5.6000000000000005,-9.600000000000001
11.200000000000001,-11.200000000000001,5.6000000000000005,-9.600000000000001
11.3,-12.0,4.800000000000001,-9.600000000000001
11.4,-11.200000000000001,4.800000000000001,-10.4
11.5,-10.4,4.800000000000001,-10.4
11.600000000000001,-10.4,5.6000000000000005,-9.600000000000001
11.700000000000001,-11.200000000000001,4.800000000000001,-8.8
11.8,-11.200000000000001,4.800000000000001,-9.600000000000001
11.9,-10.4,4.0,-9.600000000000001
12.0,-10.4,4.800000000000001,-9.600000000000001
12.100000000000001,-10.4,4.800000000000001,-9.600000000000001
12.200000000000001,-10.4,4.800000000000001,-8.8
12.3,-11.200000000000001,4.800000000000001,-8.8
12.4,-10.4,4.0,-9.600000000000001
12.5,-10.4,4.800000000000001,-9.600000000000001
12.600000000000001,-9.600000000000001,4.800000000000001,-9.600000000000001
12.700000000000001,-10.4,4.800000000000001,-8.8
12.8,-10.4,4.800000000000001,-8.8
12.9,-10.4,4.0,-8.8
13.0,-10.4,4.0,-9.600000000000001
13.100000000000001,-9.600000000000001,4.800000000000001,-9.600000000000001
13.200000000000001,-9.600000000000001,4.800000000000001,-8.8
13.3,-10.4,4.800000000000001,-8.8
13.4,-10.4,4.0,-8.8
13.5,-10.4,4.0,-8.8
13.600000000000001,-9.600000000000001,4.0,-9.600000000000001
13.700000000000001,-9.600000000000001,4.0,-8.8
13.8,-9.600000000000001,4.800000000000001,-8.8
13.9,-9.600000000000001,4.800000000000001,-8.8
14.0,-10.4,4.0,-8.8
14.100000000000001,-9.600000000000001,4.0,-8.8
14.200000000000001,-9.600000000000001,4.0,-8.8
14.3,-9.600000000000001,4.800000000000001,-8.8
14.4,-9.600000000000001,4.800000000000001,-8.8
14.5,-9.600000000000001,4.0,-8.0
14.600000000000001,-9.600000000000001,4.0,-8.8
14.700000000000001,-9.600000000000001,4.0,-8.8
14.8,-8.8,4.0,-8.8
14.9,-8.8,4.0,-8.8
15.0,-8.8,4.0,-8.8
15.100000000000001,-9.600000000000001,4.0,-8.8
15.200000000000001,-9.600000000000001,4.0,-8.8
15.3,-9.600000000000001,4.0,-8.0
15.4,-8.8,4.0,-8.8
15.5,-8.8,4.0,-8.8
15.600000000000001,-8.8,4.0,-8.8
15.700000000000001,-8.8,4.0,-8.0
15.8,-8.8,4.0,-8.0
15.9,-8.8,4.0,-8.0
16.0,-9.600000000000001,3.2,-8.8
16.1,-8.8,3.2,-8.8
16.2,-8.8,4.0,-8.8
16.3,-8.8,4.0,-8.8
16.400000000000002,-8.8,4.0,-8.0
16.5,-8.8,4.0,-8.0
16.6,-8.8,4.0,-8.0
16.7,-8.8,3.2,-8.0
16.8,-8.8,4.0,-8.0
16.900000000000002,-8.8,3.2,-8.8
17.0,-8.0,4.0,-8.8
17.1,-8.0,4.0,-8.8
17.2,-8.0,4.0,-8.0
17.3,-8.8,4.0,-8.0
17.400000000000002,-8.8,4.0,-8.0
17.5,-8.8,3.2,-8.0
17.6,-8.8,3.2,-8.8
17.7,-8.0,3.2,-8.8
17.8,-8.0,4.0,-8.8
17.900000000000002,-8.0,4.0,-8.0
18.0,-8.0,4.0,-8.0
18.1,-8.0,4.0,-8.0
18.2,-8.0,4.0,-8.0
18.3,-8.0,4.0,-8.0
18.400000000000002,-8.0,4.0,-8.0
18.5,-8.0,3.2,-8.0
18.6,-8.0,4.0,-8.0
18.7,-8.0,4.0,-8.0
18.8,-8.0,4.0,-8.0
18.900000000000002,-8.0,4.0,-8.0
19.0,-8.0,4.0,-8.0
19.1,-8.0,4.0,-8.0
19.200000000000003,-8.0,4.0,-8.0
19.3,-8.0,4.0,-8.0
19.400000000000002,-8.0,4.0,-8.0
19.5,-8.0,4.0,-8.0
19.6,-7.2,4.0,-8.0
19.700000000000003,-7.2,4.0,-8.0
19.8,-7.2,4.0,-8.0
19.900000000000002,-7.2,4.0,-8.0
20.0,-7.2,4.0,-8.0
20.1,-7.2,4.0,-8.0
20.200000000000003,-8.0,4.0,-8.0
20.3,-8.0,4.0,-8.0
20.400000000000002,-7.2,3.2,-8.0
20.5,-7.2,3.2,-8.0
20.6,-7.2,4.0,-8.0
20.700000000000003,-7.2,4.0,-8.0
20.8,-7.2,4.0,-8.0
20.900000000000002,-7.2,4.0,-8.0
21.0,-7.2,4.0,-8.0
21.1,-7.2,4.0,-8.0
21.200000000000003,-7.2,4.0,-8.0
21.3,-7.2,4.0,-8.0
21.400000000000002,-7.2,4.0,-8.0
21.5,-7.2,4.0,-8.0
21.6,-7.2,4.0,-8.0
21.700000000000003,-6.4,4.0,-8.0
21.8,-6.4,4.0,-8.0
21.900000000000002,-6.4,4.0,-8.0
22.0,-6.4,4.0,-8.0
22.1,-6.4,4.0,-8.0
22.200000000000003,-6.4,4.0,-8.0
22.3,-6.4,4.0,-8.0
22.400000000000002,-6.4,4.0,-8.0
22.5,-6.4,4.0,-8.0
22.6,-6.4,4.0,-8.0
22.700000000000003,-6.4,4.0,-8.0
22.8,-6.4,4.0,-8.0
22.900000000000002,-6.4,4.0,-8.0
23.0,-6.4,4.0,-8.0
23.1,-5.6000000000000005,4.0,-8.0
23.200000000000003,-5.6000000000000005,4.0,-8.0
23.3,-5.6000000000000005,4.0,-8.0
23.400000000000002,-5.6000000000000005,4.0,-8.0
23.5,-5.6000000000000005,4.800000000000001,-8.0
23.6,-5.6000000000000005,4.0,-8.0
23.700000000000003,-5.6000000000000005,4.800000000000001,-8.0
23.8,-5.6000000000000005,4.800000000000001,-8.0
23.900000000000002,-4.800000000000001,4.800000000000001,-8.0
24.0,-4.800000000000001,4.800000000000001,-8.0
24.1,-4.800000000000001,4.0,-8.0
24.200000000000003,-4.800000000000001,4.800000000000001,-8.0
24.3,-4.800000000000001,4.800000000000001,-8.0
24.400000000000002,-4.800000000000001,4.800000000000001,-8.0
24.5,-4.800000000000001,4.0,-8.0
24.6,-4.800000000000001,4.0,-8.0
24.700000000000003,-4.0,4.0,-8.0
24.8,-4.0,4.800000000000001,-8.0
24.900000000000002,-4.0,4.800000000000001,-8.8
25.0,-4.0,4.800000000000001,-8.0
25.1,-3.2,4.800000000000001,-8.0
25.200000000000003,-3.2,4.800000000000001,-8.0
25.3,-3.2,4.800000000000001,-8.0
25.400000000000002,-3.2,4.800000000000001,-8.0
25.5,-3.2,4.800000000000001,-8.0
25.6,-3.2,4.800000000000001,-8.0
25.700000000000003,-2.4000000000000004,4.800000000000001,-8.0
25.8,-2.4000000000000004,4.800000000000001,-8.0
25.900000000000002,-2.4000000000000004,4.800000000000001,-8.0
26.0,-2.4000000000000004,4.800000000000001,-8.0
26.1,-2.4000000000000004,4.800000000000001,-8.0
26.200000000000003,-1.6,4.800000000000001,-8.0
26.3,-1.6,4.800000000000001,-8.0
26.400000000000002,-1.6,4.800000000000001,-8.0
26.5,-0.8,4.800000000000001,-8.0
26.6,-0.8,4.800000000000001,-8.0
26.700000000000003,-0.8,4.800000000000001,-8.0
26.8,0.0,4.800000000000001,-8.0
26.900000000000002,0.0,4.800000000000001,-8.0
27.0,0.0,4.800000000000001,-8.0
27.1,0.8,4.800000000000001,-7.2
27.200000000000003,0.8,4.800000000000001,-7.2
27.3,1.6,4.800000000000001,-7.2
27.400000000000002,1.6,4.800000000000001,-7.2
27.5,1.6,4.0,-7.2
27.6,2.4000000000000004,4.0,-7.2
27.700000000000003,2.4000000000000004,4.0,-7.2
27.8,3.2,4.0,-6.4
27.900000000000002,3.2,4.0,-6.4
28.0,3.2,4.0,-6.4
28.1,4.0,4.0,-6.4
28.200000000000003,4.0,3.2,-5.6000000000000005
28.3,4.800000000000001,3.2,-5.6000000000000005
28.400000000000002,4.800000000000001,3.2,-5.6000000000000005
28.5,4.800000000000001,3.2,-4.800000000000001
28.6,5.6000000000000005,2.4000000000000004,-4.800000000000001
28.700000000000003,5.6000000000000005,2.4000000000000004,-4.800000000000001
28.8,6.4,1.6,-4.0
28.900000000000002,-4.0,3.2,-4.0
29.0,-4.0,3.2,-4.0
29.1,-3.2,2.4000000000000004,-4.0
29.200000000000003,-3.2,2.4000000000000004,-4.0
29.3,-3.2,2.4000000000000004,-4.0
29.400000000000002,-3.2,2.4000000000000004,-4.0
29.5,-3.2,1.6,-4.0
29.6,-2.4000000000000004,1.6,-4.0
29.700000000000003,-2.4000000000000004,1.6,-4.0
29.8,-2.4000000000000004,1.6,-4.0
29.900000000000002,-2.4000000000000004,0.8,-4.0
30.0,-2.4000000000000004,0.8,-4.0
30.1,-2.4000000000000004,0.8,-4.0
30.200000000000003,-2.4000000000000004,0.8,-4.0
30.3,-2.4000000000000004,0.8,-4.0
30.400000000000002,-2.4000000000000004,0.0,-4.0
30.5,-2.4000000000000004,0.0,-4.0
30.6,-2.4000000000000004,0.0,-4.0
30.700000000000003,-1.6,0.0,-4.0
30.8,-1.6,0.0,-4.0
30.900000000000002,-1.6,0.0,-4.0
31.0,-1.6,0.0,-4.0
31.1,-1.6,0.0,-4.0
31.200000000000003,-1.6,0.0,-4.0
31.3,-1.6,0.0,-4.0
31.400000000000002,-1.6,0.0,-4.0
31.5,-1.6,-0.8,-4.0
31.6,-1.6,-0.8,-4.0
31.700000000000003,-1.6,-0.8,-3.2
31.8,-1.6,-0.8,-4.0
31.900000000000002,-1.6,-0.8,-4.0
32.0,-1.6,-0.8,-4.0
32.1,-1.6,-0.8,-4.0
32.2,-1.6,-0.8,-3.2
32.300000000000004,-1.6,-0.8,-4.0
32.4,-1.6,-0.8,-4.0
32.5,-1.6,-0.8,-4.0
32.6,-1.6,-0.8,-4.0
32.7,-1.6,-0.8,-4.0
32.800000000000004,-1.6,-0.8,-3.2
32.9,-1.6,-1.6,-4.0
33.0,-1.6,-1.6,-4.0
33.1,-1.6,-1.6,-4.0
33.2,-1.6,-1.6,-3.2
33.300000000000004,-1.6,-1.6,-3.2
33.4,-1.6,-1.6,-3.2
33.5,-1.6,-1.6,-3.2
33.6,-1.6,-1.6,-3.2
33.7,-1.6,-1.6,-3.2
33.800000000000004,-1.6,-1.6,-3.2
33.9,-1.6,-1.6,-4.0
34.0,-1.6,-1.6,-3.2
34.1,-1.6,-1.6,-3.2
34.2,-1.6,-1.6,-4.0
34.300000000000004,-1.6,-1.6,-4.0
34.4,-1.6,-1.6,-3.2
34.5,-1.6,-1.6,-3.2
34.6,-1.6,-2.4000000000000004,-3.2
34.7,-1.6,-1.6,-3.2
34.800000000000004,-1.6,-1.6,-3.2
34.9,-1.6,-2.4000000000000004,-3.2
35.0,-1.6,-2.4000000000000004,-3.2
35.1,-1.6,-2.4000000000000004,-3.2
35.2,-1.6,-2.4000000000000004,-3.2
35.300000000000004,-1.6,-2.4000000000000004,-3.2
35.4,-1.6,-2.4000000000000004,-3.2
35.5,-1.6,-2.4000000000000004,-3.2
35.6,-1.6,-2.4000000000000004,-3.2
35.7,-1.6,-2.4000000000000004,-3.2
35.800000000000004,-1.6,-2.4000000000000004,-3.2
35.9,-1.6,-2.4000000000000004,-3.2
36.0,-1.6,-2.4000000000000004,-3.2
36.1,-1.6,-2.4000000000000004,-3.2
36.2,-1.6,-2.4000000000000004,-3.2
36.300000000000004,-1.6,-2.4000000000000004,-3.2
36.4,-1.6,-2.4000000000000004,-3.2
36.5,-1.6,-2.4000000000000004,-3.2
36.6,-1.6,-2.4000000000000004,-3.2
36.7,-1.6,-2.4000000000000004,-3.2
36.800000000000004,-1.6,-2.4000000000000004,-3.2
36.9,-1.6,-2.4000000000000004,-3.2
37.0,-1.6,-2.4000000000000004,-3.2
37.1,-1.6,-2.4000000000000004,-3.2
37.2,-1.6,-2.4000000000000004,-3.2
37.300000000000004,-1.6,-2.4000000000000004,-3.2
37.4,-1.6,-2.4000000000000004,-3.2
37.5,-1.6,-2.4000000000000004,-3.2
37.6,-1.6,-2.4000000000000004,-3.2
37.7,-1.6,-2.4000000000000004,-3.2
37.800000000000004,-1.6,-2.4000000000000004,-3.2
37.9,-1.6,-2.4000000000000004,-3.2
38.0,-1.6,-2.4000000000000004,-3.2
38.1,-1.6,-2.4000000000000004,-3.2
38.2,-1.6,-2.4000000000000004,-3.2
38.300000000000004,-1.6,-2.4000000000000004,-3.2
38.400000000000006,-1.6,-2.4000000000000004,-3.2
38.5,-1.6,-2.4000000000000004,-3.2
38.6,-1.6,-2.4000000000000004,-3.2
38.7,-1.6,-2.4000000000000004,-3.2
38.800000000000004,-1.6,-2.4000000000000004,-3.2
38.900000000000006,-1.6,-2.4000000000000004,-3.2
39.0,-1.6,-2.4000000000000004,-3.2
39.1,-1.6,-2.4000000000000004,-3.2
39.2,-1.6,-2.4000000000000004,-3.2
39.300000000000004,-1.6,-2.4000000000000004,-3.2
39.400000000000006,-1.6,-2.4000000000000004,-3.2
39.5,-1.6,-2.4000000000000004,-3.2
39.6,-1.6,-2.4000000000000004,-3.2
39.7,-1.6,-3.2,-3.2
39.800000000000004,-1.6,-2.4000000000000004,-4.0
39.900000000000006,-1.6,-2.4000000000000004,-3.2
40.0,-1.6,-2.4000000000000004,-3.2
40.1,-1.6,-2.4000000000000004,-3.2
40.2,-1.6,-2.4000000000000004,-3.2
40.300000000000004,-1.6,-3.2,-3.2
40.400000000000006,-1.6,-2.4000000000000004,-3.2
40.5,-1.6,-2.4000000000000004,-3.2
40.6,-1.6,-2.4000000000000004,-3.2
40.7,-1.6,-3.2,-3.2
40.800000000000004,-1.6,-3.2,-3.2
40.900000000000006,-1.6,-2.4000000000000004,-3.2
41.0,-1.6,-3.2,-3.2
41.1,-1.6,-3.2,-3.2
41.2,-1.6,-3.2,-3.2
41.300000000000004,-1.6,-3.2,-3.2
41.400000000000006,-1.6,-3.2,-3.2
41.5,-1.6,-3.2,-3.2
41.6,-1.6,-2.4000000000000004,-3.2
41.7,-1.6,-2.4000000000000004,-3.2
41.800000000000004,-1.6,-2.4000000000000004,-3.2
41.900000000000006,-1.6,-3.2,-3.2
42.0,-1.6,-3.2,-3.2
42.1,-1.6,-3.2,-3.2
42.2,-1.6,-3.2,-3.2
42.300000000000004,-1.6,-3.2,-3.2
42.400000000000006,-1.6,-3.2,-3.2
42.5,-1.6,-3.2,-3.2
42.6,-1.6,-3.2,-3.2
42.7,-1.6,-3.2,-3.2
42.800000000000004,-1.6,-3.2,-3.2
42.900000000000006,-1.6,-3.2,-3.2
43.0,-1.6,-3.2,-3.2
43.1,-1.6,-3.2,-3.2
43.2,-1.6,-3.2,-3.2
43.300000000000004,-1.6,-3.2,-3.2
43.400000000000006,-1.6,-3.2,-3.2
43.5,-1.6,-3.2,-3.2
43.6,-1.6,-3.2,-3.2
43.7,-1.6,-3.2,-3.2
43.800000000000004,-1.6,-3.2,-3.2
43.900000000000006,-1.6,-3.2,-3.2
44.0,-1.6,-3.2,-3.2
44.1,-1.6,-3.2,-3.2
44.2,-1.6,-3.2,-3.2
44.300000000000004,-1.6,-3.2,-3.2
44.400000000000006,-1.6,-3.2,-3.2
44.5,-1.6,-3.2,-3.2
44.6,-1.6,-3.2,-3.2
44.7,-1.6,-3.2,-3.2
44.800000000000004,-1.6,-3.2,-3.2
44.900000000000006,-1.6,-3.2,-3.2
45.0,-1.6,-3.2,-3.2
45.1,-1.6,-3.2,-3.2
45.2,-1.6,-3.2,-3.2
45.300000000000004,-1.6,-3.2,-3.2
45.400000000000006,-1.6,-3.2,-3.2
45.5,-1.6,-3.2,-3.2
45.6,-1.6,-3.2,-3.2
45.7,-1.6,-3.2,-3.2
45.800000000000004,-1.6,-3.2,-3.2
45.900000000000006,-1.6,-3.2,-3.2
46.0,-1.6,-3.2,-3.2
46.1,-1.6,-3.2,-3.2
46.2,-1.6,-3.2,-3.2
46.300000000000004,-1.6,-3.2,-3.2
46.400000000000006,-1.6,-3.2,-3.2
46.5,-1.6,-3.2,-3.2
46.6,-1.6,-3.2,-3.2
46.7,-1.6,-3.2,-3.2
46.800000000000004,-1.6,-3.2,-3.2
46.900000000000006,-1.6,-3.2,-3.2
47.0,-1.6,-3.2,-3.2
47.1,-1.6,-3.2,-3.2
47.2,-1.6,-3.2,-3.2
47.300000000000004,-1.6,-3.2,-3.2
47.400000000000006,-1.6,-3.2,-3.2
47.5,-1.6,-3.2,-3.2
47.6,-1.6,-3.2,-3.2
47.7,-1.6,-3.2,-3.2
47.800000000000004,-1.6,-3.2,-3.2
47.900000000000006,-1.6,-3.2,-3.2
48.0,-1.6,-3.2,-3.2
48.1,-1.6,-3.2,-3.2
48.2,-1.6,-3.2,-3.2
48.300000000000004,-1.6,-3.2,-3.2
48.400000000000006,-1.6,-3.2,-3.2
48.5,-1.6,-3.2,-3.2
48.6,-1.6,-3.2,-3.2
48.7,-1.6,-3.2,-3.2
48.800000000000004,-1.6,-3.2,-3.2
48.900000000000006,-1.6,-3.2,-3.2
49.0,-1.6,-3.2,-3.2
49.1,-1.6,-3.2,-3.2
49.2,-1.6,-3.2,-3.2
49.300000000000004,-1.6,-3.2,-3.2
49.400000000000006,-1.6,-3.2,-3.2
49.5,-1.6,-3.2,-3.2
49.6,-1.6,-3.2,-3.2
49.7,-1.6,-3.2,-3.2
49.800000000000004,-1.6,-3.2,-3.2
49.900000000000006,-1.6,-3.2,-3.2
50.0,-1.6,-3.2,-3.2
50.1,-1.6,-3.2,-3.2
50.2,-1.6,-3.2,-3.2
50.300000000000004,-1.6,-3.2,-3.2
50.400000000000006,-1.6,-3.2,-3.2
50.5,-1.6,-3.2,-3.2
50.6,-1.6,-3.2,-3.2
50.7,-1.6,-3.2,-3.2
50.800000000000004,-1.6,-3.2,-3.2
50.900000000000006,-1.6,-3.2,-3.2
51.0,-1.6,-3.2,-3.2
51.1,-1.6,-3.2,-3.2
51.2,-1.6,-3.2,-3.2
51.300000000000004,-1.6,-3.2,-3.2
51.400000000000006,-1.6,-3.2,-3.2
51.5,-1.6,-3.2,-3.2
51.6,-1.6,-3.2,-3.2
51.7,-1.6,-3.2,-3.2
51.800000000000004,-1.6,-3.2,-3.2
51.900000000000006,-1.6,-3.2,-3.2
52.0,-1.6,-3.2,-3.2
52.1,-1.6,-3.2,-3.2
52.2,-1.6,-3.2,-3.2
52.300000000000004,-1.6,-3.2,-3.2
52.400000000000006,-1.6,-3.2,-3.2
52.5,-1.6,-3.2,-3.2
52.6,-1.6,-3.2,-3.2
52.7,-1.6,-3.2,-3.2
52.800000000000004,-1.6,-3.2,-3.2
52.900000000000006,-1.6,-3.2,-3.2
53.0,-1.6,-3.2,-3.2
53.1,-1.6,-3.2,-3.2
53.2,-1.6,-3.2,-3.2
53.300000000000004,-1.6,-3.2,-3.2
53.400000000000006,-1.6,-3.2,-3.2
53.5,-1.6,-3.2,-3.2
53.6,-1.6,-3.2,-3.2
53.7,-1.6,-3.2,-3.2
53.800000000000004,-1.6,-3.2,-3.2
53.900000000000006,-1.6,-3.2,-3.2
54.0,-1.6,-3.2,-3.2
54.1,-1.6,-3.2,-3.2
54.2,-1.6,-3.2,-3.2
54.300000000000004,-1.6,-3.2,-3.2
54.400000000000006,-1.6,-3.2,-3.2
54.5,-1.6,-3.2,-3.2
54.6,-1.6,-3.2,-3.2
54.7,-1.6,-3.2,-3.2
54.800000000000004,-1.6,-3.2,-3.2
54.900000000000006,-1.6,-3.2,-3.2
55.0,-1.6,-3.2,-3.2
55.1,-1.6,-3.2,-3.2
55.2,-1.6,-3.2,-3.2
55.300000000000004,-1.6,-3.2,-3.2
55.400000000000006,-1.6,-3.2,-3.2
55.5,-1.6,-3.2,-3.2
55.6,-1.6,-3.2,-3.2
55.7,-1.6,-3.2,-3.2
55.800000000000004,-1.6,-3.2,-3.2
55.900000000000006,-1.6,-3.2,-3.2
56.0,-1.6,-3.2,-3.2
56.1,-1.6,-3.2,-3.2
56.2,-1.6,-3.2,-3.2
56.300000000000004,-1.6,-3.2,-3.2
56.400000000000006,-1.6,-3.2,-3.2
56.5,-1.6,-3.2,-3.2
56.6,-1.6,-3.2,-3.2
56.7,-1.6,-3.2,-3.2
56.800000000000004,-1.6,-3.2,-3.2
56.900000000000006,-1.6,-3.2,-3.2
57.0,-1.6,-3.2,-3.2
57.1,-1.6,-3.2,-3.2
57.2,-1.6,-3.2,-3.2
57.300000000000004,-1.6,-3.2,-3.2
57.400000000000006,-1.6,-3.2,-3.2
57.5,-1.6,-3.2,-3.2
57.6,-1.6,-3.2,-3.2
57.7,-1.6,-3.2,-3.2
57.800000000000004,-1.6,-3.2,-3.2
57.900000000000006,-1.6,-3.2,-3.2
58.0,-1.6,-3.2,-3.2
58.1,-1.6,-3.2,-3.2
58.2,-1.6,-3.2,-3.2
58.300000000000004,-1.6,-3.2,-3.2
58.400000000000006,-1.6,-3.2,-3.2
58.5,-1.6,-3.2,-3.2
58.6,-1.6,-3.2,-3.2
58.7,-1.6,-3.2,-3.2
58.800000000000004,-1.6,-3.2,-3.2
58.900000000000006,-1.6,-3.2,-3.2
59.0,-1.6,-3.2,-3.2
59.1,-1.6,-3.2,-3.2
59.2,-1.6,-3.2,-3.2
59.300000000000004,-1.6,-3.2,-3.2
59.400000000000006,-1.6,-3.2,-3.2
59.5,-1.6,-3.2,-3.2
59.6,-1.6,-3.2,-3.2
59.7,-1.6,-3.2,-3.2
59.800000000000004,-1.6,-3.2,-3.2
59.900000000000006,-1.6,-3.2,-3.2
60.0,-1.6,-3.2,-3.2
60.1,-1.6,-3.2,-3.2
60.2,-1.6,-3.2,-3.2
60.300000000000004,-1.6,-3.2,-3.2
60.400000000000006,-1.6,-3.2,-3.2
60.5,-1.6,-3.2,-3.2
60.6,-1.6,-3.2,-3.2
60.7,-1.6,-3.2,-3.2
60.800000000000004,-1.6,-3.2,-3.2
60.900000000000006,-1.6,-3.2,-3.2
61.0,-1.6,-3.2,-3.2
61.1,-1.6,-3.2,-3.2
61.2,-1.6,-3.2,-3.2
61.300000000000004,-1.6,-3.2,-3.2
61.400000000000006,-1.6,-3.2,-3.2
61.5,-1.6,-3.2,-3.2
61.6,-1.6,-3.2,-3.2
61.7,-1.6,-3.2,-3.2
61.800000000000004,-1.6,-3.2,-3.2
61.900000000000006,-1.6,-3.2,-3.2
62.0,-1.6,-3.2,-3.2
62.1,-1.6,-3.2,-3.2
62.2,-1.6,-3.2,-3.2
62.300000000000004,-1.6,-3.2,-3.2
62.400000000000006,-1.6,-3.2,-3.2
62.5,-1.6,-3.2,-3.2
62.6,-1.6,-3.2,-3.2
62.7,-1.6,-3.2,-3.2
62.800000000000004,-1.6,-3.2,-3.2
62.900000000000006,-1.6,-3.2,-3.2
63.0,-1.6,-3.2,-3.2
63.1,-1.6,-3.2,-3.2
63.2,-1.6,-3.2,-3.2
63.300000000000004,-1.6,-3.2,-3.2
63.400000000000006,-1.6,-3.2,-3.2
63.5,-1.6,-3.2,-3.2
63.6,-1.6,-3.2,-3.2
63.7,-1.6,-3.2,-3.2
63.800000000000004,-1.6,-3.2,-3.2
63.900000000000006,-1.6,-3.2,-3.2
64.0,-1.6,-3.2,-3.2
64.10000000000001,-1.6,-3.2,-3.2
64.2,-1.6,-3.2,-3.2
64.3,-1.6,-3.2,-3.2
64.4,-1.6,-3.2,-3.2
64.5,-1.6,-3.2,-3.2
64.60000000000001,-1.6,-3.2,-3.2
64.7,-1.6,-3.2,-3.2
64.8,-1.6,-3.2,-3.2
64.9,-1.6,-3.2,-3.2
65.0,-1.6,-3.2,-3.2
65.10000000000001,-1.6,-3.2,-3.2
65.2,-1.6,-3.2,-3.2
65.3,-1.6,-3.2,-3.2
65.4,-1.6,-3.2,-3.2
65.5,-1.6,-3.2,-3.2
65.60000000000001,-1.6,-3.2,-3.2
65.7,-1.6,-3.2,-3.2
65.8,-1.6,-3.2,-3.2
65.9,-1.6,-3.2,-3.2
66.0,-1.6,-3.2,-3.2
66.10000000000001,-1.6,-3.2,-3.2
66.2,-1.6,-3.2,-3.2
66.3,-1.6,-3.2,-3.2
66.4,-1.6,-3.2,-3.2
66.5,-1.6,-3.2,-3.2
66.60000000000001,-1.6,-3.2,-3.2
66.7,-1.6,-3.2,-3.2
66.8,-1.6,-3.2,-3.2
66.9,-1.6,-3.2,-3.2
67.0,-1.6,-3.2,-3.2
67.10000000000001,-1.6,-3.2,-3.2
67.2,-1.6,-3.2,-3.2
67.3,-1.6,-3.2,-3.2
67.4,-1.6,-3.2,-3.2
67.5,-1.6,-3.2,-3.2
67.60000000000001,-1.6,-3.2,-3.2
67.7,-1.6,-3.2,-3.2
67.8,-1.6,-3.2,-3.2
67.9,-1.6,-3.2,-3.2
68.0,-1.6,-3.2,-3.2
68.10000000000001,-1.6,-3.2,-3.2
68.2,-1.6,-3.2,-3.2
68.3,-1.6,-3.2,-3.2
68.4,-1.6,-3.2,-3.2
68.5,-1.6,-3.2,-3.2
68.60000000000001,-1.6,-3.2,-3.2
68.7,-1.6,-3.2,-3.2
68.8,-1.6,-3.2,-3.2
68.9,-1.6,-3.2,-3.2
69.0,-1.6,-3.2,-3.2
69.10000000000001,-1.6,-3.2,-3.2
69.2,-1.6,-3.2,-3.2
69.3,-1.6,-3.2,-3.2
69.4,-1.6,-3.2,-3.2
69.5,-1.6,-3.2,-3.2
69.60000000000001,-1.6,-3.2,-3.2
69.7,-1.6,-3.2,-3.2
69.8,-1.6,-3.2,-3.2
69.9,-1.6,-3.2,-3.2
70.0,-1.6,-3.2,-3.2
70.10000000000001,-1.6,-3.2,-3.2
70.2,-1.6,-3.2,-3.2
70.3,-1.6,-3.2,-3.2
70.4,-1.6,-3.2,-3.2
70.5,-1.6,-3.2,-3.2
70.60000000000001,-1.6,-3.2,-3.2
70.7,-1.6,-3.2,-3.2
70.8,-1.6,-3.2,-3.2
70.9,-1.6,-3.2,-3.2
71.0,-1.6,-3.2,-3.2
71.10000000000001,-1.6,-3.2,-3.2
71.2,-1.6,-3.2,-3.2
71.3,-1.6,-3.2,-3.2
71.4,-1.6,-3.2,-3.2
71.5,-1.6,-3.2,-3.2
71.60000000000001,-1.6,-3.2,-3.2
71.7,-1.6,-3.2,-3.2
71.8,-1.6,-3.2,-3.2
71.9,-1.6,-3.2,-3.2
72.0,-1.6,-3.2,-3.2
72.10000000000001,-1.6,-3.2,-3.2
72.2,-1.6,-3.2,-3.2
72.3,-1.6,-3.2,-3.2
72.4,-1.6,-3.2,-3.2
72.5,-1.6,-3.2,-3.2
72.60000000000001,-1.6,-3.2,-3.2
72.7,-1.6,-3.2,-3.2
72.8,-1.6,-3.2,-3.2
72.9,-1.6,-3.2,-3.2
73.0,-1.6,-3.2,-3.2
73.10000000000001,-1.6,-3.2,-3.2
73.2,-1.6,-3.2,-3.2
73.3,-1.6,-3.2,-3.2
73.4,-1.6,-3.2,-3.2
73.5,-1.6,-3.2,-3.2
73.60000000000001,-1.6,-3.2,-3.2
73.7,-1.6,-3.2,-3.2
73.8,-1.6,-3.2,-3.2
73.9,-1.6,-3.2,-3.2
74.0,-1.6,-3.2,-3.2
74.10000000000001,-1.6,-3.2,-3.2
74.2,-1.6,-3.2,-3.2
74.3,-1.6,-3.2,-3.2
74.4,-1.6,-3.2,-3.2
74.5,-1.6,-3.2,-3.2
74.60000000000001,-1.6,-3.2,-3.2
74.7,-1.6,-3.2,-3.2
74.8,-1.6,-3.2,-3.2
74.9,-1.6,-3.2,-3.2
75.0,-1.6,-3.2,-3.2
75.10000000000001,-1.6,-3.2,-3.2
75.2,-1.6,-3.2,-3.2
75.3,-1.6,-3.2,-3.2
75.4,-1.6,-3.2,-3.2
75.5,-1.6,-3.2,-3.2
75.60000000000001,-1.6,-3.2,-3.2
75.7,-1.6,-3.2,-3.2
75.8,-1.6,-3.2,-3.2
75.9,-1.6,-3.2,-3.2
76.0,-1.6,-3.2,-3.2
76.10000000000001,-1.6,-3.2,-3.2
76.2,-1.6,-3.2,-3.2
76.3,-1.6,-3.2,-3.2
76.4,-1.6,-3.2,-3.2
76.5,-1.6,-3.2,-3.2
76.60000000000001,-1.6,-3.2,-3.2
76.7,-1.6,-3.2,-3.2
76.80000000000001,-1.6,-3.2,-3.2
76.9,-1.6,-3.2,-3.2
77.0,-1.6,-3.2,-3.2
77.10000000000001,-1.6,-3.2,-3.2
77.2,-1.6,-3.2,-3.2
77.30000000000001,-1.6,-3.2,-3.2
77.4,-1.6,-3.2,-3.2
77.5,-1.6,-3.2,-3.2
77.60000000000001,-1.6,-3.2,-3.2
77.7,-1.6,-3.2,-3.2
77.80000000000001,-1.6,-3.2,-3.2
77.9,-1.6,-3.2,-3.2
78.0,-1.6,-3.2,-3.2
78.10000000000001,-1.6,-3.2,-3.2
78.2,-1.6,-3.2,-3.2
78.30000000000001,-1.6,-3.2,-3.2
78.4,-1.6,-3.2,-3.2
78.5,-1.6,-3.2,-3.2
78.60000000000001,-1.6,-3.2,-3.2
78.7,-1.6,-3.2,-3.2
78.80000000000001,-1.6,-3.2,-3.2
78.9,-1.6,-3.2,-3.2
79.0,-1.6,-3.2,-3.2
79.10000000000001,-1.6,-3.2,-3.2
79.2,-1.6,-3.2,-3.2
79.30000000000001,-1.6,-3.2,-3.2
79.4,-1.6,-3.2,-3.2
79.5,-1.6,-3.2,-3.2
79.60000000000001,-1.6,-3.2,-3.2
79.7,-1.6,-3.2,-3.2
79.80000000000001,-1.6,-3.2,-3.2
79.9,-1.6,-3.2,-3.2
80.0,-1.6,-3.2,-3.2
80.10000000000001,-1.6,-3.2,-3.2
80.2,-1.6,-3.2,-3.2
80.30000000000001,-1.6,-3.2,-3.2
80.4,-1.6,-3.2,-3.2
80.5,-1.6,-3.2,-3.2
80.60000000000001,-1.6,-3.2,-3.2
80.7,-1.6,-3.2,-3.2
80.80000000000001,-1.6,-3.2,-3.2
80.9,-1.6,-3.2,-3.2
81.0,-1.6,-3.2,-3.2
81.10000000000001,-1.6,-3.2,-3.2
81.2,-1.6,-3.2,-3.2
81.30000000000001,-1.6,-3.2,-3.2
81.4,-1.6,-3.2,-3.2
81.5,-1.6,-3.2,-3.2
81.60000000000001,-1.6,-3.2,-3.2
81.7,-1.6,-3.2,-3.2
81.80000000000001,-1.6,-3.2,-3.2
81.9,-1.6,-3.2,-3.2
82.0,-1.6,-3.2,-3.2
82.10000000000001,-1.6,-3.2,-3.2
82.2,-1.6,-3.2,-3.2
82.30000000000001,-1.6,-3.2,-3.2
82.4,-1.6,-3.2,-3.2
82.5,-1.6,-3.2,-3.2
82.60000000000001,-1.6,-3.2,-3.2
82.7,-1.6,-3.2,-3.2
82.80000000000001,-1.6,-3.2,-3.2
82.9,-1.6,-3.2,-3.2
83.0,-1.6,-3.2,-3.2
83.10000000000001,-1.6,-3.2,-3.2
83.2,-1.6,-3.2,-3.2
83.30000000000001,-1.6,-3.2,-3.2
83.4,-1.6,-3.2,-3.2
83.5,-1.6,-3.2,-3.2
83.60000000000001,-1.6,-3.2,-3.2
83.7,-1.6,-3.2,-3.2
83.80000000000001,-1.6,-3.2,-3.2
83.9,-1.6,-3.2,-3.2
84.0,-1.6,-3.2,-3.2
84.10000000000001,-1.6,-3.2,-3.2
84.2,-1.6,-3.2,-3.2
84.30000000000001,-1.6,-3.2,-3.2
84.4,-1.6,-3.2,-3.2
84.5,-1.6,-3.2,-3.2
84.60000000000001,-1.6,-3.2,-3.2
84.7,-1.6,-3.2,-3.2
84.80000000000001,-1.6,-3.2,-3.2
84.9,-1.6,-3.2,-3.2
85.0,-1.6,-3.2,-3.2
85.10000000000001,-1.6,-3.2,-3.2
85.2,-1.6,-3.2,-3.2
85.30000000000001,-1.6,-3.2,-3.2
85.4,-1.6,-3.2,-3.2
85.5,-1.6,-3.2,-3.2
85.60000000000001,-1.6,-3.2,-3.2
85.7,-1.6,-3.2,-3.2
85.80000000000001,-1.6,-3.2,-3.2
85.9,-1.6,-3.2,-3.2
86.0,-1.6,-3.2,-3.2
86.10000000000001,-1.6,-3.2,-3.2
86.2,-1.6,-3.2,-3.2
86.30000000000001,-1.6,-3.2,-3.2
86.4,-1.6,-3.2,-3.2
86.5,-1.6,-3.2,-3.2
86.60000000000001,-1.6,-3.2,-3.2
86.7,-1.6,-3.2,-3.2
86.80000000000001,-1.6,-3.2,-3.2
86.9,-1.6,-3.2,-3.2
87.0,-1.6,-3.2,-3.2
87.10000000000001,-1.6,-3.2,-3.2
87.2,-1.6,-3.2,-3.2
87.30000000000001,-1.6,-3.2,-3.2
87.4,-1.6,-3.2,-3.2
87.5,-1.6,-3.2,-3.2
87.60000000000001,-1.6,-3.2,-3.2
87.7,-1.6,-3.2,-3.2
87.80000000000001,-1.6,-3.2,-3.2
87.9,-1.6,-3.2,-3.2
88.0,-1.6,-3.2,-3.2
88.10000000000001,-1.6,-3.2,-3.2
88.2,-1.6,-3.2,-3.2
88.30000000000001,-1.6,-3.2,-3.2
88.4,-1.6,-3.2,-3.2
88.5,-1.6,-3.2,-3.2
88.60000000000001,-1.6,-3.2,-3.2
88.7,-1.6,-3.2,-3.2
88.80000000000001,-1.6,-3.2,-3.2
88.9,-1.6,-3.2,-3.2
89.0,-1.6,-3.2,-3.2
89.10000000000001,-1.6,-3.2,-3.2
89.2,-1.6,-3.2,-3.2
89.30000000000001,-1.6,-3.2,-3.2
89.4,-1.6,-3.2,-3.2
89.5,-1.6,-3.2,-3.2
89.60000000000001,-1.6,-3.2,-3.2
89.7,-1.6,-3.2,-3.2
89.80000000000001,-1.6,-3.2,-3.2
89.9,-1.6,-3.2,-3.2
90.0,-1.6,-3.2,-3.2
90.10000000000001,-1.6,-3.2,-3.2
90.2,-1.6,-3.2,-3.2
90.30000000000001,-1.6,-3.2,-3.2
90.4,-1.6,-3.2,-3.2
90.5,-1.6,-3.2,-3.2
90.60000000000001,-1.6,-3.2,-3.2
90.7,-1.6,-3.2,-3.2
90.80000000000001,-1.6,-3.2,-3.2
90.9,-1.6,-3.2,-3.2
91.0,-1.6,-3.2,-3.2
91.10000000000001,-1.6,-3.2,-3.2
91.2,-1.6,-3.2,-3.2
91.30000000000001,-1.6,-3.2,-3.2
91.4,-1.6,-3.2,-3.2
91.5,-1.6,-3.2,-3.2
91.60000000000001,-1.6,-3.2,-3.2
91.7,-1.6,-3.2,-3.2
91.80000000000001,-1.6,-3.2,-3.2
91.9,-1.6,-3.2,-3.2
92.0,-1.6,-3.2,-3.2
92.10000000000001,-1.6,-3.2,-3.2
92.2,-1.6,-3.2,-3.2
92.30000000000001,-1.6,-3.2,-3.2
92.4,-1.6,-3.2,-3.2
92.5,-1.6,-3.2,-3.2
92.60000000000001,-1.6,-3.2,-3.2
92.7,-1.6,-3.2,-3.2
92.80000000000001,-1.6,-3.2,-3.2
92.9,-1.6,-3.2,-3.2
93.0,-1.6,-3.2,-3.2
93.10000000000001,-1.6,-3.2,-3.2
93.2,-1.6,-3.2,-3.2
93.30000000000001,-1.6,-3.2,-3.2
93.4,-1.6,-3.2,-3.2
93.5,-1.6,-3.2,-3.2
93.60000000000001,-1.6,-3.2,-3.2
93.7,-1.6,-3.2,-3.2
93.80000000000001,-1.6,-3.2,-3.2
93.9,-1.6,-3.2,-3.2
94.0,-1.6,-3.2,-3.2
94.10000000000001,-1.6,-3.2,-3.2
94.2,-1.6,-3.2,-3.2
94.30000000000001,-1.6,-3.2,-3.2
94.4,-1.6,-3.2,-3.2
94.5,-1.6,-3.2,-3.2
94.60000000000001,-1.6,-3.2,-3.2
94.7,-1.6,-3.2,-3.2
94.80000000000001,-1.6,-3.2,-3.2
94.9,-1.6,-3.2,-3.2
95.0,-1.6,-3.2,-3.2
95.10000000000001,-1.6,-3.2,-3.2
95.2,-1.6,-3.2,-3.2
95.30000000000001,-1.6,-3.2,-3.2
95.4,-1.6,-3.2,-3.2
95.5,-1.6,-3.2,-3.2
95.60000000000001,-1.6,-3.2,-3.2
95.7,-1.6,-3.2,-3.2
95.80000000000001,-1.6,-3.2,-3.2
95.9,-1.6,-3.2,-3.2
96.0,-1.6,-3.2,-3.2
96.10000000000001,-1.6,-3.2,-3.2
96.2,-1.6,-3.2,-3.2
96.30000000000001,-1.6,-3.2,-3.2
96.4,-1.6,-3.2,-3.2
96.5,-1.6,-3.2,-3.2
96.60000000000001,-1.6,-3.2,-3.2
96.7,-1.6,-3.2,-3.2
96.80000000000001,-1.6,-3.2,-3.2
96.9,-1.6,-3.2,-3.2
97.0,-1.6,-3.2,-3.2
97.10000000000001,-1.6,-3.2,-3.2
97.2,-1.6,-3.2,-3.2
97.30000000000001,-1.6,-3.2,-3.2
97.4,-1.6,-3.2,-3.2
97.5,-1.6,-3.2,-3.2
97.60000000000001,-1.6,-3.2,-3.2
97.7,-1.6,-3.2,-3.2
97.80000000000001,-1.6,-3.2,-3.2
97.9,-1.6,-3.2,-3.2
98.0,-1.6,-3.2,-3.2
98.10000000000001,-1.6,-3.2,-3.2
98.2,-1.6,-3.2,-3.2
98.30000000000001,-1.6,-3.2,-3.2
98.4,-1.6,-3.2,-3.2
98.5,-1.6,-3.2,-3.2
98.60000000000001,-1.6,-3.2,-3.2
98.7,-1.6,-3.2,-3.2
98.80000000000001,-1.6,-3.2,-3.2
98.9,-1.6,-3.2,-3.2
99.0,-1.6,-3.2,-3.2
99.10000000000001,-1.6,-3.2,-3.2
99.2,-1.6,-3.2,-3.2
99.30000000000001,-1.6,-3.2,-3.2
99.4,-1.6,-3.2,-3.2
99.5,-1.6,-3.2,-3.2
99.60000000000001,-1.6,-3.2,-3.2
99.7,-1.6,-3.2,-3.2
99.80000000000001,-1.6,-3.2,-3.2
99.9,-1.6,-3.2,-3.2
100.0,-1.6,-3.2,-3.2
100.10000000000001,-1.6,-3.2,-3.2
100.2,-1.6,-3.2,-3.2
100.30000000000001,-1.6,-3.2,-3.2
100.4,-1.6,-3.2,-3.2
100.5,-1.6,-3.2,-3.2
100.60000000000001,-1.6,-3.2,-3.2
100.7,-1.6,-3.2,-3.2
100.80000000000001,-1.6,-3.2,-3.2
100.9,-1.6,-3.2,-3.2
101.0,-1.6,-3.2,-3.2
101.10000000000001,-1.6,-3.2,-3.2
101.2,-1.6,-3.2,-3.2
101.30000000000001,-1.6,-3.2,-3.2
101.4,-1.6,-3.2,-3.2
101.5,-1.6,-3.2,-3.2
101.60000000000001,-1.6,-3.2,-3.2
101.7,-1.6,-3.2,-3.2
101.80000000000001,-1.6,-3.2,-3.2
101.9,-1.6,-3.2,-3.2
102.0,-1.6,-3.2,-3.2
102.10000000000001,-1.6,-3.2,-3.2
102.2,-1.6,-3.2,-3.2
102.30000000000001,-1.6,-3.2,-3.2
102.4,-1.6,-3.2,-3.2
102.5,-1.6,-3.2,-3.2
102.60000000000001,-1.6,-3.2,-3.2
102.7,-1.6,-3.2,-3.2
102.80000000000001,-1.6,-3.2,-3.2
102.9,-1.6,-3.2,-3.2
103.0,-1.6,-3.2,-3.2
103.10000000000001,-1.6,-3.2,-3.2
103.2,-1.6,-3.2,-3.2
103.30000000000001,-1.6,-3.2,-3.2
103.4,-1.6,-3.2,-3.2
103.5,-1.6,-3.2,-3.2
103.60000000000001,-1.6,-3.2,-3.2
103.7,-1.6,-3.2,-3.2
103.80000000000001,-1.6,-3.2,-3.2
103.9,-1.6,-3.2,-3.2
104.0,-1.6,-3.2,-3.2
104.10000000000001,-1.6,-3.2,-3.2
104.2,-1.6,-3.2,-3.2
104.30000000000001,-1.6,-3.2,-3.2
104.4,-1.6,-3.2,-3.2
104.5,-1.6,-3.2,-3.2
104.60000000000001,-1.6,-3.2,-3.2
104.7,-1.6,-3.2,-3.2
104.80000000000001,-1.6,-3.2,-3.2
104.9,-1.6,-3.2,-3.2
105.0,-1.6,-3.2,-3.2
105.10000000000001,-1.6,-3.2,-3.2
105.2,-1.6,-3.2,-3.2
105.30000000000001,-1.6,-3.2,-3.2
105.4,-1.6,-3.2,-3.2
105.5,-1.6,-3.2,-3.2
105.60000000000001,-1.6,-3.2,-3.2
105.7,-1.6,-3.2,-3.2
105.80000000000001,-1.6,-3.2,-3.2
105.9,-1.6,-3.2,-3.2
106.0,-1.6,-3.2,-3.2
106.10000000000001,-1.6,-3.2,-3.2
106.2,-1.6,-3.2,-3.2
106.30000000000001,-1.6,-3.2,-3.2
106.4,-1.6,-3.2,-3.2
106.5,-1.6,-3.2,-3.2
106.60000000000001,-1.6,-3.2,-3.2
106.7,-1.6,-3.2,-3.2
106.80000000000001,-1.6,-3.2,-3.2
106.9,-1.6,-3.2,-3.2
107.0,-1.6,-3.2,-3.2
107.10000000000001,-1.6,-3.2,-3.2
107.2,-1.6,-3.2,-3.2
107.30000000000001,-1.6,-3.2,-3.2
107.4,-1.6,-3.2,-3.2
107.5,-1.6,-3.2,-3.2
107.60000000000001,-1.6,-3.2,-3.2
107.7,-1.6,-3.2,-3.2
107.80000000000001,-1.6,-3.2,-3.2
107.9,-1.6,-3.2,-3.2
108.0,-1.6,-3.2,-3.2
108.10000000000001,-1.6,-3.2,-3.2
108.2,-1.6,-3.2,-3.2
108.30000000000001,-1.6,-3.2,-3.2
108.4,-1.6,-3.2,-3.2
108.5,-1.6,-3.2,-3.2
108.60000000000001,-1.6,-3.2,-3.2
108.7,-1.6,-3.2,-3.2
108.80000000000001,-1.6,-3.2,-3.2
108.9,-1.6,-3.2,-3.2
109.0,-1.6,-3.2,-3.2
109.10000000000001,-1.6,-3.2,-3.2
109.2,-1.6,-3.2,-3.2
109.30000000000001,-1.6,-3.2,-3.2
109.4,-1.6,-3.2,-3.2
109.5,-1.6,-3.2,-3.2
109.60000000000001,-1.6,-3.2,-3.2
109.7,-1.6,-3.2,-3.2
109.80000000000001,-1.6,-3.2,-3.2
109.9,-1.6,-3.2,-3.2
110.0,-1.6,-3.2,-3.2
110.10000000000001,-1.6,-3.2,-3.2
110.2,-1.6,-3.2,-3.2
110.30000000000001,-1.6,-3.2,-3.2
110.4,-1.6,-3.2,-3.2
110.5,-1.6,-3.2,-3.2
110.60000000000001,-1.6,-3.2,-3.2
110.7,-1.6,-3.2,-3.2
110.80000000000001,-1.6,-3.2,-3.2
110.9,-1.6,-3.2,-3.2
111.0,-1.6,-3.2,-3.2
111.10000000000001,-1.6,-3.2,-3.2
111.2,-1.6,-3.2,-3.2
111.30000000000001,-1.6,-3.2,-3.2
111.4,-1.6,-3.2,-3.2
111.5,-1.6,-3.2,-3.2
111.60000000000001,-1.6,-3.2,-3.2
111.7,-1.6,-3.2,-3.2
111.80000000000001,-1.6,-3.2,-3.2
111.9,-1.6,-3.2,-3.2
112.0,-1.6,-3.2,-3.2
112.10000000000001,-1.6,-3.2,-3.2
112.2,-1.6,-3.2,-3.2
112.30000000000001,-1.6,-3.2,-3.2
112.4,-1.6,-3.2,-3.2
112.5,-1.6,-3.2,-3.2
112.60000000000001,-1.6,-3.2,-3.2
112.7,-1.6,-3.2,-3.2
112.80000000000001,-1.6,-3.2,-3.2
112.9,-1.6,-3.2,-3.2
113.0,-1.6,-3.2,-3.2
113.10000000000001,-1.6,-3.2,-3.2
113.2,-1.6,-3.2,-3.2
113.30000000000001,-1.6,-3.2,-3.2
113.4,-1.6,-3.2,-3.2
113.5,-1.6,-3.2,-3.2
113.60000000000001,-1.6,-3.2,-3.2
113.7,-1.6,-3.2,-3.2
113.80000000000001,-1.6,-3.2,-3.2
113.9,-1.6,-3.2,-3.2
114.0,-1.6,-3.2,-3.2
114.10000000000001,-1.6,-3.2,-3.2
114.2,-1.6,-3.2,-3.2
114.30000000000001,-1.6,-3.2,-3.2
114.4,-1.6,-3.2,-3.2
114.5,-1.6,-3.2,-3.2
114.60000000000001,-1.6,-3.2,-3.2
114.7,-1.6,-3.2,-3.2
114.80000000000001,-1.6,-3.2,-3.2
114.9,-1.6,-3.2,-3.2
115.0,-1.6,-3.2,-3.2
115.10000000000001,-1.6,-3.2,-3.2
115.2,-1.6,-3.2,-3.2
115.30000000000001,-1.6,-3.2,-3.2
115.4,-1.6,-3.2,-3.2
115.5,-1.6,-3.2,-3.2
115.60000000000001,-1.6,-3.2,-3.2
115.7,-1.6,-3.2,-3.2
115.80000000000001,-1.6,-3.2,-3.2
115.9,-1.6,-3.2,-3.2
116.0,-1.6,-3.2,-3.2
116.10000000000001,-1.6,-3.2,-3.2
116.2,-1.6,-3.2,-3.2
116.30000000000001,-1.6,-3.2,-3.2
116.4,-1.6,-3.2,-3.2
116.5,-1.6,-3.2,-3.2
116.60000000000001,-1.6,-3.2,-3.2
116.7,-1.6,-3.2,-3.2
116.80000000000001,-1.6,-3.2,-3.2
116.9,-1.6,-3.2,-3.2
117.0,-1.6,-3.2,-3.2
117.10000000000001,-1.6,-3.2,-3.2
117.2,-1.6,-3.2,-3.2
117.30000000000001,-1.6,-3.2,-3.2
117.4,-1.6,-3.2,-3.2
117.5,-1.6,-3.2,-3.2
117.60000000000001,-1.6,-3.2,-3.2
117.7,-1.6,-3.2,-3.2
117.80000000000001,-1.6,-3.2,-3.2
117.9,-1.6,-3.2,-3.2
118.0,-1.6,-3.2,-3.2
118.10000000000001,-1.6,-3.2,-3.2
118.2,-1.6,-3.2,-3.2
118.30000000000001,-1.6,-3.2,-3.2
118.4,-1.6,-3.2,-3.2
118.5,-1.6,-3.2,-3.2
118.60000000000001,-1.6,-3.2,-3.2
118.7,-1.6,-3.2,-3.2
118.80000000000001,-1.6,-3.2,-3.2
118.9,-1.6,-3.2,-3.2
119.0,-1.6,-3.2,-3.2
119.10000000000001,-1.6,-3.2,-3.2
119.2,-1.6,-3.2,-3.2
119.30000000000001,-1.6,-3.2,-3.2
119.4,-1.6,-3.2,-3.2
119.5,-1.6,-3.2,-3.2
119.60000000000001,-1.6,-3.2,-3.2
119.7,-1.6,-3.2,-3.2
119.80000000000001,-1.6,-3.2,-3.2
119.9,-1.6,-3.2,-3.2
120.0,-1.6,-3.2,-3.2
120.10000000000001,-1.6,-3.2,-3.2
120.2,-1.6,-3.2,-3.2
120.30000000000001,-1.6,-3.2,-3.2
120.4,-1.6,-3.2,-3.2
120.5,-1.6,-3.2,-3.2
120.60000000000001,-1.6,-3.2,-3.2
120.7,-1.6,-3.2,-3.2
120.80000000000001,-1.6,-3.2,-3.2
120.9,-1.6,-3.2,-3.2
121.0,-1.6,-3.2,-3.2
121.10000000000001,-1.6,-3.2,-3.2
121.2,-1.6,-3.2,-3.2
121.30000000000001,-1.6,-3.2,-3.2
121.4,-1.6,-3.2,-3.2
121.5,-1.6,-3.2,-3.2
121.60000000000001,-1.6,-3.2,-3.2
121.7,-1.6,-3.2,-3.2
121.80000000000001,-1.6,-3.2,-3.2
121.9,-1.6,-3.2,-3.2
122.0,-1.6,-3.2,-3.2
122.10000000000001,-1.6,-3.2,-3.2
122.2,-1.6,-3.2,-3.2
122.30000000000001,-1.6,-3.2,-3.2
122.4,-1.6,-3.2,-3.2
122.5,-1.6,-3.2,-3.2
122.60000000000001,-1.6,-3.2,-3.2
122.7,-1.6,-3.2,-3.2
122.80000000000001,-1.6,-3.2,-3.2
122.9,-1.6,-3.2,-3.2
123.0,-1.6,-3.2,-3.2
123.10000000000001,-1.6,-3.2,-3.2
123.2,-1.6,-3.2,-3.2
123.30000000000001,-1.6,-3.2,-3.2
123.4,-1.6,-3.2,-3.2
123.5,-1.6,-3.2,-3.2
123.60000000000001,-1.6,-3.2,-3.2
123.7,-1.6,-3.2,-3.2
123.80000000000001,-1.6,-3.2,-3.2
123.9,-1.6,-3.2,-3.2
124.0,-1.6,-3.2,-3.2
124.10000000000001,-1.6,-3.2,-3.2
124.2,-1.6,-3.2,-3.2
124.30000000000001,-1.6,-3.2,-3.2
124.4,-1.6,-3.2,-3.2
124.5,-1.6,-3.2,-3.2
124.60000000000001,-1.6,-3.2,-3.2
124.7,-1.6,-3.2,-3.2
124.80000000000001,-1.6,-3.2,-3.2
124.9,-1.6,-3.2,-3.2
125.0,-1.6,-3.2,-3.2
125.10000000000001,-1.6,-3.2,-3.2
125.2,-1.6,-3.2,-3.2
125.30000000000001,-1.6,-3.2,-3.2
125.4,-1.6,-3.2,-3.2
125.5,-1.6,-3.2,-3.2
125.60000000000001,-1.6,-3.2,-3.2
125.7,-1.6,-3.2,-3.2
125.80000000000001,-1.6,-3.2,-3.2
125.9,-1.6,-3.2,-3.2
126.0,-1.6,-3.2,-3.2
126.10000000000001,-1.6,-3.2,-3.2
126.2,-1.6,-3.2,-3.2
126.30000000000001,-1.6,-3.2,-3.2
126.4,-1.6,-3.2,-3.2
126.5,-1.6,-3.2,-3.2
126.60000000000001,-1.6,-3.2,-3.2
126.7,-1.6,-3.2,-3.2
126.80000000000001,-1.6,-3.2,-3.2
126.9,-1.6,-3.2,-3.2
127.0,-1.6,-3.2,-3.2
127.10000000000001,-1.6,-3.2,-3.2
127.2,-1.6,-3.2,-3.2
127.30000000000001,-1.6,-3.2,-3.2
127.4,-1.6,-3.2,-3.2
127.5,-1.6,-3.2,-3.2
127.60000000000001,-1.6,-3.2,-3.2
127.7,-1.6,-3.2,-3.2
127.80000000000001,-1.6,-3.2,-3.2
127.9,-1.6,-3.2,-3.2
128.0,-1.6,-3.2,-3.2
128.1,-1.6,-3.2,-3.2
128.20000000000002,-1.6,-3.2,-3.2
128.3,-1.6,-3.2,-3.2
128.4,-1.6,-3.2,-3.2
128.5,-1.6,-3.2,-3.2
128.6,-1.6,-3.2,-3.2
128.70000000000002,-1.6,-3.2,-3.2
128.8,-1.6,-3.2,-3.2
128.9,-1.6,-3.2,-3.2
129.0,-1.6,-3.2,-3.2
129.1,-1.6,-3.2,-3.2
129.20000000000002,-1.6,-3.2,-3.2
129.3,-1.6,-3.2,-3.2
129.4,-1.6,-3.2,-3.2
129.5,-1.6,-3.2,-3.2
129.6,-1.6,-3.2,-3.2
129.70000000000002,-1.6,-3.2,-3.2
129.8,-1.6,-3.2,-3.2
129.9,-1.6,-3.2,-3.2
130.0,-1.6,-3.2,-3.2
130.1,-1.6,-3.2,-3.2
130.20000000000002,-1.6,-3.2,-3.2
130.3,-1.6,-3.2,-3.2
130.4,-1.6,-3.2,-3.2
130.5,-1.6,-3.2,-3.2
130.6,-1.6,-3.2,-3.2
130.70000000000002,-1.6,-3.2,-3.2
130.8,-1.6,-3.2,-3.2
130.9,-1.6,-3.2,-3.2
131.0,-1.6,-3.2,-3.2
131.1,-1.6,-3.2,-3.2
131.20000000000002,-1.6,-3.2,-3.2
131.3,-1.6,-3.2,-3.2
131.4,-1.6,-3.2,-3.2
131.5,-1.6,-3.2,-3.2
131.6,-1.6,-3.2,-3.2
131.70000000000002,-1.6,-3.2,-3.2
131.8,-1.6,-3.2,-3.2
131.9,-1.6,-3.2,-3.2
132.0,-1.6,-3.2,-3.2
132.1,-1.6,-3.2,-3.2
132.20000000000002,-1.6,-3.2,-3.2
132.3,-1.6,-3.2,-3.2
132.4,-1.6,-3.2,-3.2
132.5,-1.6,-3.2,-3.2
132.6,-1.6,-3.2,-3.2
132.70000000000002,-1.6,-3.2,-3.2
132.8,-1.6,-3.2,-3.2
132.9,-1.6,-3.2,-3.2
133.0,-1.6,-3.2,-3.2
133.1,-1.6,-3.2,-3.2
133.20000000000002,-1.6,-3.2,-3.2
133.3,-1.6,-3.2,-3.2
133.4,-1.6,-3.2,-3.2
133.5,-1.6,-3.2,-3.2
133.6,-1.6,-3.2,-3.2
133.70000000000002,-1.6,-3.2,-3.2
133.8,-1.6,-3.2,-3.2
133.9,-1.6,-3.2,-3.2
134.0,-1.6,-3.2,-3.2
134.1,-1.6,-3.2,-3.2
134.20000000000002,-1.6,-3.2,-3.2
134.3,-1.6,-3.2,-3.2
134.4,-1.6,-3.2,-3.2
134.5,-1.6,-3.2,-3.2
134.6,-1.6,-3.2,-3.2
134.70000000000002,-1.6,-3.2,-3.2
134.8,-1.6,-3.2,-3.2
134.9,-1.6,-3.2,-3.2
135.0,-1.6,-3.2,-3.2
135.1,-1.6,-3.2,-3.2
135.20000000000002,-1.6,-3.2,-3.2
135.3,-1.6,-3.2,-3.2
135.4,-1.6,-3.2,-3.2
135.5,-1.6,-3.2,-3.2
135.6,-1.6,-3.2,-3.2
135.70000000000002,-1.6,-3.2,-3.2
135.8,-1.6,-3.2,-3.2
135.9,-1.6,-3.2,-3.2
136.0,-1.6,-3.2,-3.2
136.1,-1.6,-3.2,-3.2
136.20000000000002,-1.6,-3.2,-3.2
136.3,-1.6,-3.2,-3.2
136.4,-1.6,-3.2,-3.2
136.5,-1.6,-3.2,-3.2
136.6,-1.6,-3.2,-3.2
136.70000000000002,-1.6,-3.2,-3.2
136.8,-1.6,-3.2,-3.2
136.9,-1.6,-3.2,-3.2
137.0,-1.6,-3.2,-3.2
137.1,-1.6,-3.2,-3.2
137.20000000000002,-1.6,-3.2,-3.2
137.3,-1.6,-3.2,-3.2
137.4,-1.6,-3.2,-3.2
137.5,-1.6,-3.2,-3.2
137.6,-1.6,-3.2,-3.2
137.70000000000002,-1.6,-3.2,-3.2
137.8,-1.6,-3.2,-3.2
137.9,-1.6,-3.2,-3.2
138.0,-1.6,-3.2,-3.2
138.1,-1.6,-3.2,-3.2
138.20000000000002,-1.6,-3.2,-3.2
138.3,-1.6,-3.2,-3.2
138.4,-1.6,-3.2,-3.2
138.5,-1.6,-3.2,-3.2
138.6,-1.6,-3.2,-3.2
138.70000000000002,-1.6,-3.2,-3.2
138.8,-1.6,-3.2,-3.2
138.9,-1.6,-3.2,-3.2
139.0,-1.6,-3.2,-3.2
139.1,-1.6,-3.2,-3.2
139.20000000000002,-1.6,-3.2,-3.2
139.3,-1.6,-3.2,-3.2
139.4,-1.6,-3.2,-3.2
139.5,-1.6,-3.2,-3.2
139.6,-1.6,-3.2,-3.2
139.70000000000002,-1.6,-3.2,-3.2
139.8,-1.6,-3.2,-3.2
139.9,-1.6,-3.2,-3.2
140.0,-1.6,-3.2,-3.2
140.1,-1.6,-3.2,-3.2
140.20000000000002,-1.6,-3.2,-3.2
140.3,-1.6,-3.2,-3.2
140.4,-1.6,-3.2,-3.2
140.5,-1.6,-3.2,-3.2
140.6,-1.6,-3.2,-3.2
140.70000000000002,-1.6,-3.2,-3.2
140.8,-1.6,-3.2,-3.2
140.9,-1.6,-3.2,-3.2
141.0,-1.6,-3.2,-3.2
141.1,-1.6,-3.2,-3.2
141.20000000000002,-1.6,-3.2,-3.2
141.3,-1.6,-3.2,-3.2
141.4,-1.6,-3.2,-3.2
141.5,-1.6,-3.2,-3.2
141.6,-1.6,-3.2,-3.2
141.70000000000002,-1.6,-3.2,-3.2
141.8,-1.6,-3.2,-3.2
141.9,-1.6,-3.2,-3.2
142.0,-1.6,-3.2,-3.2
142.1,-1.6,-3.2,-3.2
142.20000000000002,-1.6,-3.2,-3.2
142.3,-1.6,-3.2,-3.2
142.4,-1.6,-3.2,-3.2
142.5,-1.6,-3.2,-3.2
142.6,-1.6,-3.2,-3.2
142.70000000000002,-1.6,-3.2,-3.2
142.8,-1.6,-3.2,-4.0
142.9,-1.6,-3.2,-3.2
143.0,-1.6,-3.2,-3.2
143.1,-1.6,-3.2,-3.2
143.20000000000002,-1.6,-3.2,-3.2
143.3,-1.6,-3.2,-3.2
143.4,-1.6,-3.2,-3.2
143.5,-1.6,-3.2,-3.2
143.6,-1.6,-3.2,-3.2
143.70000000000002,-1.6,-3.2,-3.2
143.8,-1.6,-3.2,-3.2
143.9,-1.6,-3.2,-3.2
144.0,-1.6,-3.2,-3.2
144.1,-1.6,-3.2,-3.2
144.20000000000002,-1.6,-3.2,-3.2
144.3,-1.6,-3.2,-3.2
144.4,-1.6,-3.2,-3.2
144.5,-1.6,-3.2,-3.2
144.6,-1.6,-3.2,-3.2
144.70000000000002,-1.6,-3.2,-3.2
144.8,-1.6,-3.2,-3.2
144.9,-1.6,-3.2,-3.2
145.0,-1.6,-3.2,-3.2
145.1,-1.6,-3.2,-3.2
145.20000000000002,-1.6,-3.2,-3.2
145.3,-1.6,-3.2,-3.2
145.4,-1.6,-3.2,-3.2
145.5,-1.6,-3.2,-3.2
145.6,-1.6,-3.2,-3.2
145.70000000000002,-1.6,-3.2,-3.2
145.8,-1.6,-3.2,-3.2
145.9,-1.6,-3.2,-3.2
146.0,-1.6,-3.2,-3.2
146.1,-1.6,-3.2,-3.2
146.20000000000002,-1.6,-3.2,-3.2
146.3,-1.6,-3.2,-3.2
146.4,-1.6,-3.2,-3.2
146.5,-1.6,-3.2,-3.2
146.6,-1.6,-3.2,-3.2
146.70000000000002,-1.6,-3.2,-3.2
146.8,-1.6,-3.2,-3.2
146.9,-1.6,-3.2,-3.2
147.0,-1.6,-3.2,-3.2
147.1,-1.6,-3.2,-3.2
147.20000000000002,-1.6,-3.2,-3.2
147.3,-1.6,-3.2,-3.2
147.4,-1.6,-3.2,-3.2
147.5,-1.6,-3.2,-3.2
147.6,-1.6,-3.2,-3.2
147.70000000000002,-1.6,-3.2,-3.2
147.8,-1.6,-3.2,-3.2
147.9,-1.6,-3.2,-3.2
148.0,-1.6,-3.2,-3.2
148.1,-1.6,-3.2,-3.2
148.20000000000002,-1.6,-3.2,-3.2
148.3,-1.6,-3.2,-3.2
148.4,-1.6,-3.2,-3.2
148.5,-1.6,-3.2,-3.2
148.6,-1.6,-3.2,-3.2
148.70000000000002,-1.6,-3.2,-3.2
148.8,-1.6,-3.2,-3.2
148.9,-1.6,-3.2,-3.2
149.0,-1.6,-3.2,-3.2
149.1,-1.6,-3.2,-3.2
149.20000000000002,-1.6,-3.2,-3.2
149.3,-1.6,-3.2,-3.2
149.4,-1.6,-3.2,-3.2
149.5,-1.6,-3.2,-3.2
149.6,-1.6,-3.2,-3.2
149.70000000000002,-1.6,-3.2,-3.2
149.8,-1.6,-3.2,-3.2
149.9,-1.6,-3.2,-3.2
150.0,-1.6,-3.2,-3.2
150.1,-1.6,-3.2,-3.2
150.20000000000002,-1.6,-3.2,-3.2
150.3,-1.6,-3.2,-3.2
150.4,-1.6,-3.2,-3.2
150.5,-1.6,-3.2,-3.2
150.6,-1.6,-3.2,-3.2
150.70000000000002,-1.6,-3.2,-3.2
150.8,-1.6,-3.2,-3.2
150.9,-1.6,-3.2,-3.2
151.0,-1.6,-2.4000000000000004,-3.2
151.1,-1.6,-3.2,-3.2
151.20000000000002,-1.6,-3.2,-3.2
151.3,-1.6,-3.2,-3.2
151.4,-1.6,-3.2,-3.2
151.5,-1.6,-3.2,-3.2
151.6,-1.6,-3.2,-3.2
151.70000000000002,-1.6,-3.2,-3.2
151.8,-1.6,-3.2,-3.2
151.9,-1.6,-3.2,-3.2
152.0,-1.6,-3.2,-3.2
152.1,-1.6,-3.2,-3.2
152.20000000000002,-1.6,-3.2,-3.2
152.3,-1.6,-3.2,-3.2
152.4,-1.6,-3.2,-3.2
152.5,-1.6,-3.2,-3.2
152.6,-1.6,-3.2,-3.2
152.70000000000002,-1.6,-3.2,-3.2
152.8,-1.6,-3.2,-3.2
152.9,-1.6,-3.2,-3.2
153.0,-1.6,-3.2,-3.2
153.1,-1.6,-3.2,-3.2
153.20000000000002,-1.6,-3.2,-3.2
153.3,-1.6,-3.2,-3.2
153.4,-1.6,-3.2,-3.2
153.5,-1.6,-3.2,-3.2
153.60000000000002,-1.6,-3.2,-3.2
153.70000000000002,-1.6,-3.2,-3.2
153.8,-1.6,-3.2,-3.2
153.9,-1.6,-3.2,-3.2
154.0,-1.6,-3.2,-3.2
154.10000000000002,-1.6,-3.2,-3.2
154.20000000000002,-1.6,-3.2,-3.2
154.3,-1.6,-3.2,-3.2
154.4,-1.6,-3.2,-3.2
154.5,-1.6,-3.2,-3.2
154.60000000000002,-1.6,-3.2,-3.2
154.70000000000002,-1.6,-3.2,-3.2
154.8,-1.6,-3.2,-3.2
154.9,-1.6,-3.2,-3.2
155.0,-1.6,-3.2,-3.2
155.10000000000002,-1.6,-3.2,-3.2
155.20000000000002,-1.6,-3.2,-3.2
155.3,-1.6,-3.2,-3.2
155.4,-1.6,-3.2,-3.2
155.5,-1.6,-3.2,-3.2
155.60000000000002,-1.6,-3.2,-3.2
155.70000000000002,-1.6,-3.2,-3.2
155.8,-1.6,-3.2,-3.2
155.9,-1.6,-3.2,-3.2
156.0,-1.6,-3.2,-3.2
156.10000000000002,-1.6,-3.2,-3.2
156.20000000000002,-1.6,-3.2,-3.2
156.3,-1.6,-3.2,-3.2
156.4,-1.6,-3.2,-3.2
156.5,-1.6,-3.2,-3.2
156.60000000000002,-1.6,-3.2,-3.2
156.70000000000002,-1.6,-3.2,-3.2
156.8,-1.6,-3.2,-3.2
156.9,-1.6,-3.2,-3.2
157.0,-1.6,-3.2,-3.2
157.10000000000002,-1.6,-3.2,-3.2
157.20000000000002,-1.6,-3.2,-3.2
157.3,-1.6,-3.2,-3.2
157.4,-1.6,-3.2,-4.0
157.5,-1.6,-3.2,-3.2
157.60000000000002,-1.6,-3.2,-3.2
157.70000000000002,-1.6,-3.2,-3.2
157.8,-1.6,-3.2,-3.2
157.9,-1.6,-3.2,-3.2
158.0,-1.6,-3.2,-3.2
158.10000000000002,-1.6,-3.2,-3.2
158.20000000000002,-1.6,-3.2,-3.2
158.3,-1.6,-3.2,-3.2
158.4,-1.6,-3.2,-3.2
158.5,-1.6,-3.2,-3.2
158.60000000000002,-1.6,-3.2,-3.2
158.70000000000002,-1.6,-3.2,-3.2
158.8,-1.6,-3.2,-3.2
158.9,-1.6,-3.2,-3.2
159.0,-1.6,-3.2,-3.2
159.10000000000002,-1.6,-3.2,-3.2
159.20000000000002,-1.6,-3.2,-3.2
159.3,-1.6,-3.2,-3.2
159.4,-1.6,-3.2,-3.2
159.5,-1.6,-3.2,-3.2
159.60000000000002,-1.6,-3.2,-3.2
159.70000000000002,-1.6,-3.2,-3.2
159.8,-1.6,-3.2,-3.2
159.9,-1.6,-3.2,-3.2
160.0,-1.6,-3.2,-3.2
160.10000000000002,-1.6,-3.2,-3.2
160.20000000000002,-1.6,-3.2,-3.2
160.3,-1.6,-3.2,-3.2
160.4,-1.6,-3.2,-3.2
160.5,-1.6,-3.2,-3.2
160.60000000000002,-1.6,-3.2,-3.2
160.70000000000002,-1.6,-3.2,-3.2
160.8,-1.6,-3.2,-3.2
160.9,-1.6,-3.2,-3.2
161.0,-1.6,-3.2,-3.2
161.10000000000002,-1.6,-3.2,-3.2
161.20000000000002,-1.6,-3.2,-3.2
161.3,-1.6,-3.2,-3.2
161.4,-1.6,-3.2,-3.2
161.5,-1.6,-3.2,-3.2
161.60000000000002,-1.6,-3.2,-3.2
161.70000000000002,-1.6,-3.2,-3.2
161.8,-1.6,-3.2,-3.2
161.9,-1.6,-3.2,-3.2
162.0,-1.6,-3.2,-3.2
162.10000000000002,-1.6,-3.2,-3.2
162.20000000000002,-1.6,-3.2,-3.2
162.3,-1.6,-3.2,-3.2
162.4,-1.6,-3.2,-3.2
162.5,-1.6,-3.2,-3.2
162.60000000000002,-1.6,-3.2,-3.2
162.70000000000002,-1.6,-3.2,-3.2
162.8,-1.6,-3.2,-3.2
162.9,-1.6,-3.2,-3.2
163.0,-1.6,-3.2,-3.2
163.10000000000002,-1.6,-3.2,-3.2
163.20000000000002,-1.6,-3.2,-3.2
163.3,-1.6,-3.2,-3.2
163.4,-1.6,-3.2,-3.2
163.5,-1.6,-3.2,-3.2
163.60000000000002,-1.6,-3.2,-3.2
163.70000000000002,-1.6,-3.2,-3.2
163.8,-1.6,-3.2,-3.2
163.9,-1.6,-3.2,-3.2
164.0,-1.6,-3.2,-3.2
164.10000000000002,-1.6,-3.2,-3.2
164.20000000000002,-1.6,-3.2,-3.2
164.3,-1.6,-3.2,-3.2
164.4,-1.6,-3.2,-3.2
164.5,-1.6,-3.2,-3.2
164.60000000000002,-1.6,-3.2,-3.2
164.70000000000002,-1.6,-3.2,-3.2
164.8,-1.6,-3.2,-3.2
164.9,-1.6,-3.2,-3.2
165.0,-1.6,-3.2,-3.2
165.10000000000002,-1.6,-3.2,-3.2
165.20000000000002,-1.6,-3.2,-3.2
165.3,-1.6,-3.2,-3.2
165.4,-1.6,-3.2,-3.2
165.5,-1.6,-3.2,-3.2
165.60000000000002,-1.6,-3.2,-3.2
165.70000000000002,-1.6,-3.2,-3.2
165.8,-1.6,-3.2,-3.2
165.9,-1.6,-3.2,-3.2
166.0,-1.6,-3.2,-3.2
166.10000000000002,-1.6,-3.2,-3.2
166.20000000000002,-1.6,-3.2,-3.2
166.3,-1.6,-3.2,-3.2
166.4,-1.6,-3.2,-3.2
166.5,-1.6,-3.2,-3.2
166.60000000000002,-1.6,-3.2,-3.2
166.70000000000002,-1.6,-3.2,-3.2
166.8,-1.6,-3.2,-3.2
166.9,-1.6,-3.2,-3.2
167.0,-1.6,-3.2,-3.2
167.10000000000002,-1.6,-3.2,-3.2
167.20000000000002,-1.6,-3.2,-3.2
167.3,-1.6,-3.2,-3.2
167.4,-1.6,-3.2,-3.2
167.5,-1.6,-3.2,-3.2
167.60000000000002,-1.6,-3.2,-3.2
167.70000000000002,-1.6,-3.2,-3.2
167.8,-1.6,-3.2,-3.2
167.9,-1.6,-3.2,-3.2
168.0,-1.6,-3.2,-3.2
168.10000000000002,-1.6,-3.2,-3.2
168.20000000000002,-1.6,-3.2,-3.2
168.3,-1.6,-3.2,-3.2
168.4,-1.6,-3.2,-3.2
168.5,-1.6,-3.2,-3.2
168.60000000000002,-1.6,-3.2,-3.2
168.70000000000002,-1.6,-3.2,-3.2
168.8,-1.6,-3.2,-3.2
168.9,-1.6,-3.2,-3.2
169.0,-1.6,-3.2,-3.2
169.10000000000002,-1.6,-3.2,-3.2
169.20000000000002,-1.6,-3.2,-3.2
169.3,-1.6,-3.2,-3.2
169.4,-1.6,-3.2,-3.2
169.5,-1.6,-3.2,-3.2
169.60000000000002,-1.6,-3.2,-3.2
169.70000000000002,-1.6,-3.2,-3.2
169.8,-1.6,-3.2,-3.2
169.9,-1.6,-3.2,-3.2
170.0,-1.6,-3.2,-3.2
170.10000000000002,-1.6,-3.2,-3.2
170.20000000000002,-1.6,-3.2,-3.2
170.3,-1.6,-3.2,-3.2
170.4,-1.6,-3.2,-3.2
170.5,-1.6,-3.2,-3.2
170.60000000000002,-1.6,-3.2,-3.2
170.70000000000002,-1.6,-3.2,-3.2
170.8,-1.6,-3.2,-3.2
170.9,-1.6,-3.2,-3.2
171.0,-1.6,-3.2,-3.2
171.10000000000002,-1.6,-3.2,-3.2
171.20000000000002,-1.6,-3.2,-3.2
171.3,-1.6,-3.2,-3.2
171.4,-1.6,-3.2,-3.2
171.5,-1.6,-3.2,-3.2
171.60000000000002,-1.6,-3.2,-3.2
171.70000000000002,-1.6,-3.2,-3.2
171.8,-1.6,-3.2,-3.2
171.9,-1.6,-3.2,-3.2
172.0,-1.6,-3.2,-3.2
172.10000000000002,-1.6,-3.2,-3.2
172.20000000000002,-1.6,-3.2,-3.2
172.3,-1.6,-3.2,-3.2
172.4,-1.6,-3.2,-3.2
172.5,-1.6,-3.2,-3.2
172.60000000000002,-1.6,-3.2,-3.2
172.70000000000002,-1.6,-3.2,-3.2
172.8,-1.6,-3.2,-3.2
172.9,-1.6,-3.2,-3.2
173.0,-1.6,-3.2,-3.2
173.10000000000002,-1.6,-3.2,-3.2
173.20000000000002,-1.6,-3.2,-3.2
173.3,-1.6,-3.2,-3.2
173.4,-1.6,-3.2,-3.2
173.5,-1.6,-3.2,-3.2
173.60000000000002,-1.6,-3.2,-3.2
173.70000000000002,-1.6,-3.2,-3.2
173.8,-1.6,-3.2,-3.2
173.9,-1.6,-3.2,-3.2
174.0,-1.6,-3.2,-3.2
174.10000000000002,-1.6,-3.2,-3.2
174.20000000000002,-1.6,-3.2,-3.2
174.3,-1.6,-3.2,-3.2
174.4,-1.6,-3.2,-3.2
174.5,-1.6,-3.2,-3.2
174.60000000000002,-1.6,-3.2,-3.2
174.70000000000002,-1.6,-3.2,-3.2
174.8,-1.6,-3.2,-3.2
174.9,-1.6,-3.2,-3.2
175.0,-1.6,-3.2,-3.2
175.10000000000002,-1.6,-3.2,-3.2
175.20000000000002,-1.6,-3.2,-3.2
175.3,-1.6,-3.2,-3.2
175.4,-1.6,-3.2,-3.2
175.5,-1.6,-3.2,-3.2
175.60000000000002,-1.6,-3.2,-3.2
175.70000000000002,-1.6,-3.2,-3.2
175.8,-1.6,-3.2,-3.2
175.9,-1.6,-3.2,-3.2
176.0,-1.6,-3.2,-3.2
176.10000000000002,-1.6,-3.2,-3.2
176.20000000000002,-1.6,-3.2,-3.2
176.3,-1.6,-3.2,-3.2
176.4,-1.6,-3.2,-3.2
176.5,-1.6,-3.2,-3.2
176.60000000000002,-1.6,-3.2,-3.2
176.70000000000002,-1.6,-3.2,-3.2
176.8,-1.6,-3.2,-3.2
176.9,-1.6,-3.2,-3.2
177.0,-1.6,-3.2,-3.2
177.10000000000002,-1.6,-3.2,-3.2
177.20000000000002,-1.6,-3.2,-3.2
177.3,-1.6,-3.2,-3.2
177.4,-1.6,-3.2,-3.2
177.5,-1.6,-3.2,-3.2
177.60000000000002,-1.6,-3.2,-3.2
177.70000000000002,-1.6,-3.2,-3.2
177.8,-1.6,-3.2,-3.2
177.9,-1.6,-3.2,-3.2
178.0,-1.6,-3.2,-3.2
178.10000000000002,-1.6,-3.2,-3.2
178.20000000000002,-1.6,-3.2,-3.2
178.3,-1.6,-3.2,-3.2
178.4,-1.6,-3.2,-3.2
178.5,-1.6,-3.2,-3.2
178.60000000000002,-1.6,-3.2,-3.2
178.70000000000002,-1.6,-3.2,-3.2
178.8,-1.6,-3.2,-3.2
178.9,-1.6,-3.2,-3.2
179.0,-1.6,-3.2,-3.2
179.10000000000002,-1.6,-3.2,-3.2
179.20000000000002,-1.6,-3.2,-3.2
179.3,-1.6,-3.2,-3.2
179.4,-1.6,-3.2,-3.2
179.5,-1.6,-3.2,-3.2
179.60000000000002,-1.6,-3.2,-3.2
179.70000000000002,-1.6,-3.2,-3.2
179.8,-1.6,-3.2,-3.2
179.9,-1.6,-3.2,-3.2
180.0,-1.6,-3.2,-3.2
180.10000000000002,-1.6,-3.2,-3.2
180.20000000000002,-1.6,-3.2,-3.2
180.3,-1.6,-3.2,-3.2
180.4,-1.6,-3.2,-3.2
180.5,-1.6,-3.2,-3.2
180.60000000000002,-1.6,-3.2,-3.2
180.70000000000002,-1.6,-3.2,-3.2
180.8,-1.6,-3.2,-3.2
180.9,-1.6,-3.2,-3.2
181.0,-1.6,-3.2,-3.2
181.10000000000002,-1.6,-3.2,-3.2
181.20000000000002,-1.6,-3.2,-3.2
181.3,-1.6,-3.2,-3.2
181.4,-1.6,-3.2,-3.2
181.5,-1.6,-3.2,-3.2
181.60000000000002,-1.6,-3.2,-3.2
181.70000000000002,-1.6,-3.2,-3.2
181.8,-1.6,-3.2,-3.2
181.9,-1.6,-3.2,-3.2
182.0,-1.6,-3.2,-3.2
182.10000000000002,-1.6,-3.2,-3.2
182.20000000000002,-1.6,-3.2,-3.2
182.3,-1.6,-3.2,-3.2
182.4,-1.6,-3.2,-3.2
182.5,-1.6,-3.2,-3.2
182.60000000000002,-1.6,-3.2,-3.2
182.70000000000002,-1.6,-3.2,-3.2
182.8,-1.6,-3.2,-3.2
182.9,-1.6,-3.2,-3.2
183.0,-1.6,-3.2,-3.2
183.10000000000002,-1.6,-3.2,-3.2
183.20000000000002,-1.6,-3.2,-3.2
183.3,-1.6,-3.2,-3.2
183.4,-1.6,-3.2,-3.2
183.5,-1.6,-3.2,-3.2
183.60000000000002,-1.6,-3.2,-3.2
183.70000000000002,-1.6,-3.2,-3.2
183.8,-1.6,-3.2,-3.2
183.9,-1.6,-3.2,-3.2
184.0,-1.6,-3.2,-3.2
184.10000000000002,-1.6,-3.2,-3.2
184.20000000000002,-1.6,-3.2,-3.2
184.3,-1.6,-3.2,-3.2
184.4,-1.6,-3.2,-3.2
184.5,-1.6,-3.2,-3.2
184.60000000000002,-1.6,-3.2,-3.2
184.70000000000002,-1.6,-3.2,-3.2
184.8,-1.6,-3.2,-3.2
184.9,-1.6,-3.2,-3.2
185.0,-1.6,-3.2,-3.2
185.10000000000002,-1.6,-3.2,-3.2
185.20000000000002,-1.6,-3.2,-3.2
185.3,-1.6,-3.2,-3.2
185.4,-1.6,-3.2,-3.2
185.5,-1.6,-3.2,-3.2
185.60000000000002,-1.6,-3.2,-3.2
185.70000000000002,-1.6,-3.2,-3.2
185.8,-1.6,-3.2,-3.2
185.9,-1.6,-3.2,-3.2
186.0,-1.6,-3.2,-3.2
186.10000000000002,-1.6,-3.2,-3.2
186.20000000000002,-1.6,-3.2,-3.2
186.3,-1.6,-3.2,-3.2
186.4,-1.6,-3.2,-3.2
186.5,-1.6,-3.2,-3.2
186.60000000000002,-1.6,-3.2,-3.2
186.70000000000002,-1.6,-3.2,-3.2
186.8,-1.6,-3.2,-3.2
186.9,-1.6,-3.2,-3.2
187.0,-1.6,-3.2,-3.2
187.10000000000002,-1.6,-3.2,-3.2
187.20000000000002,-1.6,-3.2,-3.2
187.3,-1.6,-3.2,-3.2
187.4,-1.6,-3.2,-3.2
187.5,-1.6,-3.2,-3.2
187.60000000000002,-1.6,-3.2,-3.2
187.70000000000002,-1.6,-3.2,-3.2
187.8,-1.6,-3.2,-3.2
187.9,-1.6,-3.2,-3.2
188.0,-1.6,-3.2,-3.2
188.10000000000002,-1.6,-3.2,-3.2
188.20000000000002,-1.6,-3.2,-3.2
188.3,-1.6,-3.2,-3.2
188.4,-1.6,-3.2,-3.2
188.5,-1.6,-3.2,-3.2
188.60000000000002,-1.6,-3.2,-3.2
188.70000000000002,-1.6,-3.2,-3.2
188.8,-1.6,-3.2,-3.2
188.9,-1.6,-3.2,-3.2
189.0,-1.6,-3.2,-3.2
189.10000000000002,-1.6,-3.2,-3.2
189.20000000000002,-1.6,-3.2,-3.2
189.3,-1.6,-3.2,-3.2
189.4,-1.6,-3.2,-3.2
189.5,-1.6,-3.2,-3.2
189.60000000000002,-1.6,-3.2,-3.2
189.70000000000002,-1.6,-3.2,-3.2
189.8,-1.6,-3.2,-3.2
189.9,-1.6,-3.2,-3.2
190.0,-1.6,-3.2,-3.2
190.10000000000002,-1.6,-3.2,-3.2
190.20000000000002,-1.6,-3.2,-3.2
190.3,-1.6,-3.2,-3.2
190.4,-1.6,-3.2,-3.2
190.5,-1.6,-3.2,-3.2
190.60000000000002,-1.6,-3.2,-3.2
190.70000000000002,-1.6,-3.2,-3.2
190.8,-1.6,-3.2,-3.2
190.9,-1.6,-3.2,-3.2
191.0,-1.6,-3.2,-3.2
191.10000000000002,-1.6,-3.2,-3.2
191.20000000000002,-1.6,-3.2,-3.2
191.3,-1.6,-3.2,-3.2
191.4,-1.6,-3.2,-3.2
191.5,-1.6,-3.2,-3.2
191.60000000000002,-1.6,-3.2,-3.2
191.70000000000002,-1.6,-3.2,-3.2
191.8,-1.6,-3.2,-3.2
191.9,-1.6,-3.2,-3.2
192.0,-1.6,-3.2,-3.2
192.10000000000002,-1.6,-3.2,-3.2
192.20000000000002,-1.6,-3.2,-3.2
192.3,-1.6,-3.2,-3.2
192.4,-1.6,-3.2,-3.2
192.5,-1.6,-3.2,-3.2
192.60000000000002,-1.6,-3.2,-3.2
192.70000000000002,-1.6,-3.2,-3.2
192.8,-1.6,-3.2,-3.2
192.9,-1.6,-3.2,-3.2
193.0,-1.6,-3.2,-3.2
193.10000000000002,-1.6,-3.2,-3.2
193.20000000000002,-1.6,-3.2,-3.2
193.3,-1.6,-3.2,-3.2
193.4,-1.6,-3.2,-3.2
193.5,-1.6,-3.2,-3.2
193.60000000000002,-1.6,-3.2,-3.2
193.70000000000002,-1.6,-3.2,-3.2
193.8,-1.6,-3.2,-3.2
193.9,-1.6,-3.2,-3.2
194.0,-1.6,-3.2,-3.2
194.10000000000002,-1.6,-3.2,-3.2
194.20000000000002,-1.6,-3.2,-3.2
194.3,-1.6,-3.2,-3.2
194.4,-1.6,-3.2,-3.2
194.5,-1.6,-3.2,-3.2
194.60000000000002,-1.6,-3.2,-3.2
194.70000000000002,-1.6,-3.2,-3.2
194.8,-1.6,-3.2,-3.2
194.9,-1.6,-3.2,-3.2
195.0,-1.6,-3.2,-3.2
195.10000000000002,-1.6,-3.2,-3.2
195.20000000000002,-1.6,-3.2,-3.2
195.3,-1.6,-3.2,-3.2
195.4,-1.6,-3.2,-3.2
195.5,-1.6,-3.2,-3.2
195.60000000000002,-1.6,-3.2,-3.2
195.70000000000002,-1.6,-3.2,-3.2
195.8,-1.6,-3.2,-3.2
195.9,-1.6,-3.2,-3.2
196.0,-1.6,-3.2,-3.2
196.10000000000002,-1.6,-3.2,-3.2
196.20000000000002,-1.6,-3.2,-3.2
196.3,-1.6,-3.2,-3.2
196.4,-1.6,-3.2,-3.2
196.5,-1.6,-3.2,-3.2
196.60000000000002,-1.6,-3.2,-3.2
196.70000000000002,-1.6,-3.2,-3.2
196.8,-1.6,-3.2,-3.2
196.9,-1.6,-3.2,-3.2
197.0,-1.6,-3.2,-3.2
197.10000000000002,-1.6,-3.2,-3.2
197.20000000000002,-1.6,-3.2,-3.2
197.3,-1.6,-3.2,-3.2
197.4,-1.6,-3.2,-3.2
197.5,-1.6,-3.2,-3.2
197.60000000000002,-1.6,-3.2,-3.2
197.70000000000002,-1.6,-3.2,-3.2
197.8,-1.6,-3.2,-3.2
197.9,-1.6,-3.2,-3.2
198.0,-1.6,-3.2,-3.2
198.10000000000002,-1.6,-3.2,-3.2
198.20000000000002,-1.6,-3.2,-3.2
198.3,-1.6,-3.2,-3.2
198.4,-1.6,-3.2,-3.2
198.5,-1.6,-3.2,-3.2
198.60000000000002,-1.6,-3.2,-3.2
198.70000000000002,-1.6,-3.2,-3.2
198.8,-1.6,-3.2,-3.2
198.9,-1.6,-3.2,-3.2
199.0,-1.6,-3.2,-3.2
199.10000000000002,-1.6,-3.2,-3.2
199.20000000000002,-1.6,-3.2,-3.2
199.3,-1.6,-3.2,-3.2
199.4,-1.6,-3.2,-3.2
199.5,-1.6,-3.2,-3.2
199.60000000000002,-1.6,-3.2,-3.2
199.70000000000002,-1.6,-3.2,-3.2
199.8,-1.6,-3.2,-3.2
199.9,-1.6,-3.2,-3.2
200.0,-1.6,-3.2,-3.2
200.10000000000002,-1.6,-3.2,-3.2
200.20000000000002,-1.6,-3.2,-3.2
200.3,-1.6,-3.2,-3.2
200.4,-1.6,-3.2,-3.2
200.5,-1.6,-3.2,-3.2
200.60000000000002,-1.6,-3.2,-3.2
200.70000000000002,-1.6,-3.2,-3.2
200.8,-1.6,-3.2,-3.2
200.9,-1.6,-3.2,-3.2
201.0,-1.6,-3.2,-3.2
201.10000000000002,-1.6,-3.2,-3.2
201.20000000000002,-1.6,-3.2,-3.2
201.3,-1.6,-3.2,-3.2
201.4,-1.6,-3.2,-3.2
201.5,-1.6,-3.2,-3.2
201.60000000000002,-1.6,-3.2,-3.2
201.70000000000002,-1.6,-3.2,-3.2
201.8,-1.6,-3.2,-3.2
201.9,-1.6,-3.2,-3.2
202.0,-1.6,-3.2,-3.2
202.10000000000002,-1.6,-3.2,-3.2
202.20000000000002,-1.6,-3.2,-3.2
202.3,-1.6,-3.2,-3.2
202.4,-1.6,-3.2,-3.2
202.5,-1.6,-3.2,-3.2
202.60000000000002,-1.6,-3.2,-3.2
202.70000000000002,-1.6,-3.2,-3.2
202.8,-1.6,-3.2,-3.2
202.9,-1.6,-3.2,-3.2
203.0,-1.6,-3.2,-3.2
203.10000000000002,-1.6,-3.2,-3.2
203.20000000000002,-1.6,-3.2,-3.2
203.3,-1.6,-3.2,-3.2
203.4,-1.6,-3.2,-3.2
203.5,-1.6,-3.2,-3.2
203.60000000000002,-1.6,-3.2,-3.2
203.70000000000002,-1.6,-3.2,-3.2
203.8,-1.6,-3.2,-3.2
203.9,-1.6,-3.2,-3.2
204.0,-1.6,-3.2,-3.2
204.10000000000002,-1.6,-3.2,-3.2
204.20000000000002,-1.6,-3.2,-3.2
204.3,-1.6,-3.2,-3.2
204.4,-1.6,-3.2,-3.2
204.5,-1.6,-3.2,-3.2
204.60000000000002,-1.6,-3.2,-3.2
204.70000000000002,-1.6,-3.2,-3.2
204.8,-1.6,-3.2,-3.2
204.9,-1.6,-3.2,-3.2
205.0,-1.6,-3.2,-3.2
205.10000000000002,-1.6,-3.2,-3.2
205.20000000000002,-1.6,-3.2,-3.2
205.3,-1.6,-3.2,-3.2
205.4,-1.6,-3.2,-3.2
205.5,-1.6,-3.2,-3.2
205.60000000000002,-1.6,-3.2,-3.2
205.70000000000002,-1.6,-3.2,-3.2
205.8,-1.6,-3.2,-3.2
205.9,-1.6,-3.2,-3.2
206.0,-1.6,-3.2,-3.2
206.10000000000002,-1.6,-3.2,-3.2
206.20000000000002,-1.6,-3.2,-3.2
206.3,-1.6,-3.2,-3.2
206.4,-1.6,-3.2,-3.2
206.5,-1.6,-3.2,-3.2
206.60000000000002,-1.6,-3.2,-3.2
206.70000000000002,-1.6,-3.2,-3.2
206.8,-1.6,-3.2,-3.2
206.9,-1.6,-3.2,-3.2
207.0,-1.6,-3.2,-3.2
207.10000000000002,-1.6,-3.2,-3.2
207.20000000000002,-1.6,-3.2,-3.2
207.3,-1.6,-3.2,-3.2
207.4,-1.6,-3.2,-3.2
207.5,-1.6,-3.2,-3.2
207.60000000000002,-1.6,-3.2,-3.2
207.70000000000002,-1.6,-3.2,-3.2
207.8,-1.6,-3.2,-3.2
207.9,-1.6,-3.2,-3.2
208.0,-1.6,-3.2,-3.2
208.10000000000002,-1.6,-3.2,-3.2
208.20000000000002,-1.6,-3.2,-3.2
208.3,-1.6,-3.2,-3.2
208.4,-1.6,-3.2,-3.2
208.5,-1.6,-3.2,-3.2
208.60000000000002,-1.6,-3.2,-3.2
208.70000000000002,-1.6,-3.2,-3.2
208.8,-1.6,-3.2,-3.2
208.9,-1.6,-3.2,-3.2
209.0,-1.6,-3.2,-3.2
209.10000000000002,-1.6,-3.2,-3.2
209.20000000000002,-1.6,-3.2,-3.2
209.3,-1.6,-3.2,-3.2
209.4,-1.6,-3.2,-3.2
209.5,-1.6,-3.2,-3.2
209.60000000000002,-1.6,-3.2,-3.2
209.70000000000002,-1.6,-3.2,-3.2
209.8,-1.6,-3.2,-3.2
209.9,-1.6,-3.2,-3.2
210.0,-1.6,-3.2,-3.2
210.10000000000002,-1.6,-3.2,-3.2
210.20000000000002,-1.6,-3.2,-3.2
210.3,-1.6,-3.2,-3.2
210.4,-1.6,-3.2,-3.2
210.5,-1.6,-3.2,-3.2
210.60000000000002,-1.6,-3.2,-3.2
210.70000000000002,-1.6,-3.2,-3.2
210.8,-1.6,-3.2,-3.2
210.9,-1.6,-3.2,-3.2
211.0,-1.6,-3.2,-3.2
211.10000000000002,-1.6,-3.2,-3.2
211.20000000000002,-1.6,-3.2,-3.2
211.3,-1.6,-3.2,-3.2
211.4,-1.6,-3.2,-3.2
211.5,-1.6,-3.2,-3.2
211.60000000000002,-1.6,-3.2,-3.2
211.70000000000002,-1.6,-3.2,-3.2
211.8,-1.6,-3.2,-3.2
211.9,-1.6,-3.2,-3.2
212.0,-1.6,-3.2,-3.2
212.10000000000002,-1.6,-3.2,-3.2
212.20000000000002,-1.6,-3.2,-3.2
212.3,-1.6,-3.2,-3.2
212.4,-1.6,-3.2,-3.2
212.5,-1.6,-3.2,-3.2
212.60000000000002,-1.6,-3.2,-3.2
212.70000000000002,-1.6,-3.2,-3.2
212.8,-26.400000000000002,-14.4,1.6
212.9,-17.6,-10.4,0.0
213.0,-12.0,-8.0,-0.8
213.10000000000002,-9.600000000000001,-6.4,-1.6
213.20000000000002,-7.2,-5.6000000000000005,-2.4000000000000004
213.3,-5.6000000000000005,-4.800000000000001,-2.4000000000000004
213.4,-4.800000000000001,-4.800000000000001,-2.4000000000000004
213.5,-4.0,-4.0,-2.4000000000000004
213.60000000000002,-3.2,-4.0,-3.2
213.70000000000002,-3.2,-4.0,-3.2
213.8,-3.2,-4.0,-3.2
213.9,-2.4000000000000004,-3.2,-3.2
214.0,-2.4000000000000004,-3.2,-3.2
214.10000000000002,-2.4000000000000004,-3.2,-3.2
214.20000000000002,-1.6,-3.2,-3.2
214.3,-1.6,-3.2,-3.2
214.4,-1.6,-3.2,-3.2
214.5,-1.6,-3.2,-3.2
214.60000000000002,-1.6,-3.2,-3.2
214.70000000000002,-1.6,-3.2,-3.2
214.8,-1.6,-3.2,-3.2
214.9,-1.6,-3.2,-3.2
215.0,-1.6,-3.2,-3.2
215.10000000000002,-1.6,-3.2,-3.2
215.20000000000002,-1.6,-3.2,-3.2
215.3,-1.6,-3.2,-3.2
215.4,-1.6,-3.2,-3.2
215.5,-1.6,-3.2,-3.2
215.60000000000002,-1.6,-3.2,-3.2
215.70000000000002,-1.6,-3.2,-3.2
215.8,-1.6,-3.2,-3.2
215.9,-1.6,-3.2,-3.2
216.0,-1.6,-3.2,-3.2
216.10000000000002,-1.6,-3.2,-3.2
216.20000000000002,-1.6,-3.2,-3.2
216.3,-1.6,-3.2,-3.2
216.4,-1.6,-3.2,-3.2
216.5,-1.6,-3.2,-3.2
216.60000000000002,-1.6,-3.2,-3.2
216.70000000000002,-1.6,-3.2,-3.2
216.8,-1.6,-3.2,-3.2
216.9,-1.6,-3.2,-3.2
217.0,-1.6,-3.2,-3.2
217.10000000000002,-1.6,-3.2,-3.2
217.20000000000002,-1.6,-3.2,-3.2
217.3,-1.6,-3.2,-3.2
217.4,-1.6,-3.2,-3.2
217.5,-1.6,-3.2,-3.2
217.60000000000002,-1.6,-3.2,-3.2
217.70000000000002,-1.6,-3.2,-3.2
217.8,-1.6,-3.2,-3.2
217.9,-1.6,-3.2,-3.2
218.0,-1.6,-3.2,-3.2
218.10000000000002,-1.6,-3.2,-3.2
218.20000000000002,-1.6,-3.2,-3.2
218.3,-1.6,-3.2,-3.2
218.4,-1.6,-3.2,-3.2
218.5,-1.6,-3.2,-3.2
218.60000000000002,-1.6,-3.2,-3.2
218.70000000000002,-1.6,-3.2,-3.2
218.8,-1.6,-3.2,-3.2
218.9,-1.6,-3.2,-3.2
219.0,-1.6,-3.2,-3.2
219.10000000000002,-1.6,-3.2,-3.2
219.20000000000002,-1.6,-3.2,-3.2
219.3,-1.6,-3.2,-3.2
219.4,-1.6,-3.2,-3.2
219.5,-1.6,-3.2,-3.2
219.60000000000002,-1.6,-3.2,-3.2
219.70000000000002,-1.6,-3.2,-3.2
219.8,-1.6,-3.2,-3.2
219.9,-1.6,-3.2,-3.2
220.0,-1.6,-3.2,-3.2
220.10000000000002,-1.6,-3.2,-3.2
220.20000000000002,-1.6,-3.2,-3.2
220.3,-1.6,-3.2,-3.2
220.4,-1.6,-3.2,-3.2
220.5,-1.6,-3.2,-3.2
220.60000000000002,-1.6,-3.2,-3.2
220.70000000000002,-1.6,-3.2,-3.2
220.8,-1.6,-3.2,-3.2
220.9,-1.6,-3.2,-3.2
221.0,-1.6,-3.2,-3.2
221.10000000000002,-1.6,-3.2,-3.2
221.20000000000002,-1.6,-3.2,-3.2
221.3,-1.6,-3.2,-3.2
221.4,-1.6,-3.2,-3.2
221.5,-1.6,-3.2,-3.2
221.60000000000002,-1.6,-3.2,-3.2
221.70000000000002,-1.6,-3.2,-3.2
221.8,-1.6,-3.2,-3.2
221.9,-1.6,-3.2,-3.2
222.0,-1.6,-3.2,-3.2
222.10000000000002,-1.6,-3.2,-3.2
222.20000000000002,-1.6,-3.2,-3.2
222.3,-1.6,-3.2,-3.2
222.4,-1.6,-3.2,-3.2
222.5,-1.6,-3.2,-3.2
222.60000000000002,-1.6,-3.2,-3.2
222.70000000000002,-1.6,-3.2,-3.2
222.8,-1.6,-3.2,-3.2
222.9,-1.6,-3.2,-3.2
223.0,-1.6,-3.2,-3.2
223.10000000000002,-1.6,-3.2,-3.2
223.20000000000002,-1.6,-3.2,-3.2
223.3,-1.6,-3.2,-3.2
223.4,-1.6,-3.2,-3.2
223.5,-1.6,-3.2,-3.2
223.60000000000002,-1.6,-3.2,-3.2
223.70000000000002,-1.6,-3.2,-3.2
223.8,-1.6,-3.2,-3.2
223.9,-1.6,-3.2,-3.2
224.0,-1.6,-3.2,-3.2
224.10000000000002,-1.6,-3.2,-3.2
224.20000000000002,-1.6,-3.2,-3.2
224.3,-1.6,-3.2,-3.2
224.4,-1.6,-3.2,-3.2
224.5,-1.6,-3.2,-3.2
224.60000000000002,-1.6,-3.2,-3.2
224.70000000000002,-1.6,-3.2,-3.2
224.8,-1.6,-3.2,-3.2
224.9,-1.6,-3.2,-3.2
225.0,-1.6,-3.2,-3.2
225.10000000000002,-1.6,-3.2,-3.2
225.20000000000002,-1.6,-3.2,-3.2
225.3,-1.6,-3.2,-3.2
225.4,-1.6,-3.2,-3.2
225.5,-1.6,-3.2,-3.2
225.60000000000002,-1.6,-3.2,-3.2
225.70000000000002,-1.6,-3.2,-3.2
225.8,-1.6,-3.2,-3.2
225.9,-1.6,-3.2,-3.2
226.0,-1.6,-3.2,-3.2
226.10000000000002,-1.6,-3.2,-3.2
226.20000000000002,-1.6,-3.2,-3.2
226.3,-1.6,-3.2,-3.2
226.4,-1.6,-3.2,-3.2
226.5,-1.6,-3.2,-3.2
226.60000000000002,-1.6,-3.2,-3.2
226.70000000000002,-1.6,-3.2,-3.2
226.8,-1.6,-3.2,-3.2
226.9,-1.6,-3.2,-3.2
227.0,-1.6,-3.2,-3.2
227.10000000000002,-1.6,-3.2,-3.2
227.20000000000002,-1.6,-3.2,-3.2
227.3,-1.6,-3.2,-3.2
227.4,-1.6,-3.2,-3.2
227.5,-1.6,-3.2,-3.2
227.60000000000002,-1.6,-3.2,-3.2
227.70000000000002,-1.6,-3.2,-3.2
227.8,-1.6,-3.2,-3.2
227.9,-1.6,-3.2,-3.2
228.0,-1.6,-2.4000000000000004,-3.2
228.10000000000002,-1.6,-3.2,-3.2
228.20000000000002,-1.6,-3.2,-3.2
228.3,-1.6,-3.2,-3.2
228.4,-1.6,-3.2,-3.2
228.5,-1.6,-3.2,-3.2
228.60000000000002,-1.6,-3.2,-3.2
228.70000000000002,-1.6,-3.2,-3.2
228.8,-1.6,-3.2,-3.2
228.9,-1.6,-3.2,-3.2
229.0,-1.6,-3.2,-3.2
229.10000000000002,-1.6,-3.2,-3.2
229.20000000000002,-1.6,-3.2,-3.2
229.3,-1.6,-3.2,-3.2
229.4,-1.6,-3.2,-3.2
229.5,-1.6,-3.2,-3.2
229.60000000000002,-1.6,-3.2,-3.2
229.70000000000002,-1.6,-3.2,-3.2
229.8,-1.6,-3.2,-3.2
229.9,-1.6,-3.2,-3.2
230.0,-1.6,-3.2,-3.2
230.10000000000002,-1.6,-3.2,-3.2
230.20000000000002,-1.6,-3.2,-3.2
230.3,-1.6,-3.2,-3.2
230.4,-1.6,-3.2,-3.2
230.5,-1.6,-3.2,-3.2
230.60000000000002,-1.6,-3.2,-3.2
230.70000000000002,-1.6,-3.2,-3.2
230.8,-1.6,-3.2,-3.2
230.9,-1.6,-3.2,-3.2
231.0,-1.6,-3.2,-3.2
231.10000000000002,-1.6,-3.2,-3.2
231.20000000000002,-1.6,-3.2,-3.2
231.3,-1.6,-3.2,-3.2
231.4,-1.6,-3.2,-3.2
231.5,-1.6,-3.2,-3.2
231.60000000000002,-1.6,-3.2,-3.2
231.70000000000002,-1.6,-3.2,-3.2
231.8,-1.6,-3.2,-3.2
231.9,-1.6,-3.2,-3.2
232.0,-1.6,-3.2,-3.2
232.10000000000002,-1.6,-3.2,-3.2
232.20000000000002,-1.6,-3.2,-3.2
232.3,-1.6,-3.2,-3.2
232.4,-1.6,-3.2,-3.2
232.5,-1.6,-3.2,-3.2
232.60000000000002,-1.6,-3.2,-3.2
232.70000000000002,-1.6,-3.2,-3.2
232.8,-1.6,-3.2,-3.2
232.9,-1.6,-3.2,-3.2
233.0,-1.6,-3.2,-3.2
233.10000000000002,-1.6,-3.2,-3.2
233.20000000000002,-1.6,-3.2,-3.2
233.3,-1.6,-3.2,-3.2
233.4,-1.6,-3.2,-3.2
233.5,-1.6,-3.2,-3.2
233.60000000000002,-1.6,-3.2,-3.2
233.70000000000002,-1.6,-3.2,-3.2
233.8,-1.6,-3.2,-3.2
233.9,-1.6,-3.2,-3.2
234.0,-1.6,-3.2,-3.2
234.10000000000002,-1.6,-3.2,-3.2
234.20000000000002,-1.6,-3.2,-3.2
234.3,-1.6,-3.2,-3.2
234.4,-1.6,-3.2,-3.2
234.5,-1.6,-3.2,-3.2
234.60000000000002,-1.6,-3.2,-3.2
234.70000000000002,-1.6,-3.2,-3.2
234.8,-1.6,-3.2,-3.2
234.9,-1.6,-3.2,-3.2
235.0,-1.6,-3.2,-3.2
235.10000000000002,-1.6,-3.2,-3.2
235.20000000000002,-1.6,-3.2,-3.2
235.3,-1.6,-3.2,-3.2
235.4,-1.6,-3.2,-3.2
235.5,-1.6,-3.2,-3.2
235.60000000000002,-1.6,-3.2,-3.2
235.70000000000002,-1.6,-3.2,-3.2
235.8,-1.6,-3.2,-3.2
235.9,-1.6,-3.2,-3.2
236.0,-1.6,-3.2,-3.2
236.10000000000002,-1.6,-3.2,-3.2
236.20000000000002,-1.6,-3.2,-3.2
236.3,-1.6,-3.2,-3.2
236.4,-1.6,-3.2,-3.2
236.5,-1.6,-3.2,-3.2
236.60000000000002,-1.6,-3.2,-3.2
236.70000000000002,-1.6,-3.2,-3.2
236.8,-1.6,-3.2,-3.2
236.9,-1.6,-3.2,-3.2
237.0,-1.6,-3.2,-3.2
237.10000000000002,-1.6,-3.2,-3.2
237.20000000000002,-1.6,-3.2,-3.2
237.3,-1.6,-3.2,-3.2
237.4,-1.6,-3.2,-3.2
237.5,-1.6,-3.2,-3.2
237.60000000000002,-1.6,-3.2,-3.2
237.70000000000002,-1.6,-3.2,-3.2
237.8,-1.6,-3.2,-3.2
237.9,-1.6,-3.2,-3.2
238.0,-1.6,-3.2,-3.2
238.10000000000002,-1.6,-3.2,-3.2
238.20000000000002,-1.6,-3.2,-3.2
238.3,-1.6,-3.2,-3.2
238.4,-1.6,-3.2,-3.2
238.5,-1.6,-3.2,-3.2
238.60000000000002,-1.6,-3.2,-3.2
238.70000000000002,-1.6,-3.2,-3.2
238.8,-1.6,-3.2,-3.2
238.9,-1.6,-3.2,-3.2
239.0,-1.6,-3.2,-3.2
239.10000000000002,-1.6,-3.2,-3.2
239.20000000000002,-1.6,-3.2,-3.2
239.3,-1.6,-3.2,-3.2
239.4,-1.6,-3.2,-3.2
239.5,-1.6,-3.2,-3.2
239.60000000000002,-1.6,-3.2,-3.2
239.70000000000002,-1.6,-3.2,-3.2
239.8,-1.6,-3.2,-3.2
239.9,-1.6,-3.2,-3.2
240.0,-1.6,-3.2,-3.2
240.10000000000002,-1.6,-3.2,-3.2
240.20000000000002,-1.6,-3.2,-3.2
240.3,-1.6,-3.2,-3.2
240.4,-1.6,-3.2,-3.2
240.5,-1.6,-3.2,-3.2
240.60000000000002,-1.6,-3.2,-3.2
240.70000000000002,-1.6,-3.2,-3.2
240.8,-1.6,-3.2,-3.2
240.9,-1.6,-3.2,-3.2
241.0,-1.6,-3.2,-3.2
241.10000000000002,-1.6,-3.2,-3.2
241.20000000000002,-1.6,-3.2,-3.2
241.3,-1.6,-3.2,-3.2
241.4,-1.6,-3.2,-3.2
241.5,-1.6,-3.2,-3.2
241.60000000000002,-1.6,-3.2,-3.2
241.70000000000002,-1.6,-3.2,-3.2
241.8,-1.6,-3.2,-3.2
241.9,-1.6,-3.2,-3.2
242.0,-1.6,-3.2,-3.2
242.10000000000002,-1.6,-3.2,-3.2
242.20000000000002,-1.6,-3.2,-3.2
242.3,-1.6,-3.2,-3.2
242.4,-1.6,-3.2,-3.2
242.5,-1.6,-3.2,-3.2
242.60000000000002,-1.6,-3.2,-3.2
242.70000000000002,-1.6,-3.2,-3.2
242.8,-1.6,-3.2,-3.2
242.9,-1.6,-3.2,-3.2
243.0,-1.6,-3.2,-3.2
243.10000000000002,-1.6,-3.2,-3.2
243.20000000000002,-1.6,-3.2,-3.2
243.3,-1.6,-3.2,-3.2
243.4,-1.6,-3.2,-3.2
243.5,-1.6,-3.2,-3.2
243.60000000000002,-1.6,-3.2,-3.2
243.70000000000002,-1.6,-3.2,-3.2
243.8,-1.6,-3.2,-3.2
243.9,-1.6,-3.2,-3.2
244.0,-1.6,-3.2,-3.2
244.10000000000002,-1.6,-3.2,-3.2
244.20000000000002,-1.6,-3.2,-3.2
244.3,-1.6,-3.2,-3.2
244.4,-1.6,-3.2,-3.2
244.5,-1.6,-3.2,-3.2
244.60000000000002,-1.6,-3.2,-3.2
244.70000000000002,-1.6,-3.2,-3.2
244.8,-1.6,-3.2,-3.2
244.9,-1.6,-3.2,-3.2
245.0,-1.6,-3.2,-3.2
245.10000000000002,-1.6,-3.2,-3.2
245.20000000000002,-1.6,-3.2,-3.2
245.3,-1.6,-3.2,-3.2
245.4,-1.6,-3.2,-3.2
245.5,-1.6,-3.2,-3.2
245.60000000000002,-1.6,-3.2,-3.2
245.70000000000002,-1.6,-3.2,-3.2
245.8,-1.6,-3.2,-3.2
245.9,-1.6,-3.2,-3.2
246.0,-1.6,-3.2,-3.2
246.10000000000002,-1.6,-3.2,-3.2
246.20000000000002,-1.6,-3.2,-3.2
246.3,-1.6,-3.2,-3.2
246.4,-1.6,-3.2,-3.2
246.5,-1.6,-3.2,-3.2
246.60000000000002,-1.6,-3.2,-3.2
246.70000000000002,-1.6,-3.2,-3.2
246.8,-1.6,-3.2,-3.2
246.9,-1.6,-3.2,-3.2
247.0,-1.6,-3.2,-3.2
247.10000000000002,-1.6,-3.2,-3.2
247.20000000000002,-1.6,-3.2,-3.2
247.3,-1.6,-3.2,-3.2
247.4,-1.6,-3.2,-3.2
247.5,-1.6,-3.2,-3.2
247.60000000000002,-1.6,-3.2,-3.2
247.70000000000002,-1.6,-3.2,-3.2
247.8,-1.6,-3.2,-3.2
247.9,-1.6,-3.2,-3.2
248.0,-1.6,-3.2,-3.2
248.10000000000002,-1.6,-3.2,-3.2
248.20000000000002,-1.6,-3.2,-3.2
248.3,-1.6,-3.2,-3.2
248.4,-1.6,-3.2,-3.2
248.5,-1.6,-3.2,-3.2
248.60000000000002,-1.6,-3.2,-3.2
248.70000000000002,-1.6,-3.2,-3.2
248.8,-1.6,-3.2,-3.2
248.9,-1.6,-3.2,-3.2
249.0,-1.6,-3.2,-3.2
249.10000000000002,-1.6,-3.2,-3.2
249.20000000000002,-1.6,-3.2,-3.2
249.3,-1.6,-3.2,-3.2
249.4,-1.6,-3.2,-3.2
249.5,-1.6,-3.2,-3.2
249.60000000000002,-1.6,-3.2,-3.2
249.70000000000002,-1.6,-3.2,-3.2
249.8,-1.6,-3.2,-3.2
249.9,-1.6,-3.2,-3.2
250.0,-1.6,-3.2,-3.2
250.10000000000002,-1.6,-3.2,-3.2
250.20000000000002,-1.6,-3.2,-3.2
250.3,-1.6,-3.2,-3.2
250.4,-1.6,-3.2,-3.2
250.5,-1.6,-3.2,-3.2
250.60000000000002,-1.6,-3.2,-3.2
250.70000000000002,-1.6,-3.2,-3.2
250.8,-1.6,-3.2,-3.2
250.9,-1.6,-3.2,-3.2
251.0,-1.6,-3.2,-3.2
251.10000000000002,-1.6,-3.2,-3.2
251.20000000000002,-1.6,-2.4000000000000004,-3.2
251.3,-1.6,-3.2,-3.2
251.4,-1.6,-3.2,-3.2
251.5,-1.6,-3.2,-3.2
251.60000000000002,-1.6,-3.2,-3.2
251.70000000000002,-1.6,-3.2,-3.2
251.8,-1.6,-3.2,-3.2
251.9,-1.6,-3.2,-3.2
252.0,-1.6,-3.2,-3.2
252.10000000000002,-1.6,-3.2,-3.2
252.20000000000002,-1.6,-3.2,-3.2
252.3,-1.6,-3.2,-3.2
252.4,-1.6,-3.2,-3.2
252.5,-1.6,-3.2,-3.2
252.60000000000002,-1.6,-3.2,-3.2
252.70000000000002,-1.6,-3.2,-3.2
252.8,-1.6,-3.2,-3.2
252.9,-1.6,-3.2,-3.2
253.0,-1.6,-3.2,-3.2
253.10000000000002,-1.6,-3.2,-3.2
253.20000000000002,-1.6,-3.2,-3.2
253.3,-1.6,-3.2,-3.2
253.4,-1.6,-3.2,-3.2
253.5,-1.6,-3.2,-3.2
253.60000000000002,-1.6,-3.2,-3.2
253.70000000000002,-1.6,-3.2,-3.2
253.8,-1.6,-3.2,-3.2
253.9,-1.6,-3.2,-3.2
254.0,-1.6,-3.2,-3.2
254.10000000000002,-1.6,-3.2,-3.2
254.20000000000002,-1.6,-3.2,-3.2
254.3,-1.6,-3.2,-3.2
254.4,-1.6,-3.2,-3.2
254.5,-1.6,-3.2,-3.2
254.60000000000002,-1.6,-3.2,-3.2
254.70000000000002,-1.6,-3.2,-3.2
254.8,-1.6,-3.2,-3.2
254.9,-1.6,-3.2,-3.2
255.0,-1.6,-3.2,-3.2
255.10000000000002,-1.6,-3.2,-3.2
255.20000000000002,-1.6,-3.2,-3.2
255.3,-1.6,-3.2,-3.2
255.4,-1.6,-3.2,-3.2
255.5,-1.6,-3.2,-3.2
255.60000000000002,-1.6,-3.2,-3.2
255.70000000000002,-1.6,-3.2,-3.2
255.8,-1.6,-3.2,-3.2
255.9,-1.6,-3.2,-3.2
256.0,-1.6,-3.2,-3.2
256.1,-1.6,-3.2,-3.2
256.2,-1.6,-3.2,-3.2
256.3,-1.6,-3.2,-3.2
256.40000000000003,-1.6,-3.2,-3.2
256.5,-1.6,-3.2,-3.2
256.6,-1.6,-3.2,-3.2
256.7,-1.6,-3.2,-3.2
256.8,-1.6,-3.2,-3.2
256.90000000000003,-1.6,-3.2,-3.2
257.0,-1.6,-3.2,-3.2
257.1,-1.6,-3.2,-3.2
257.2,-1.6,-3.2,-3.2
257.3,-1.6,-3.2,-3.2
257.40000000000003,-1.6,-3.2,-3.2
257.5,-1.6,-2.4000000000000004,-3.2
257.6,-1.6,-3.2,-3.2
257.7,-1.6,-3.2,-3.2
257.8,-1.6,-3.2,-3.2
257.90000000000003,-1.6,-3.2,-3.2
258.0,-1.6,-3.2,-3.2
258.1,-1.6,-3.2,-3.2
258.2,-1.6,-3.2,-3.2
258.3,-1.6,-3.2,-3.2
258.40000000000003,-1.6,-3.2,-3.2
258.5,-1.6,-3.2,-3.2
258.6,-1.6,-3.2,-3.2
258.7,-1.6,-3.2,-3.2
258.8,-1.6,-3.2,-3.2
258.90000000000003,-1.6,-3.2,-3.2
259.0,-1.6,-3.2,-3.2
259.1,-1.6,-3.2,-3.2
259.2,-1.6,-3.2,-3.2
259.3,-1.6,-3.2,-3.2
259.40000000000003,-1.6,-3.2,-3.2
259.5,-1.6,-3.2,-3.2
259.6,-1.6,-3.2,-3.2
259.7,-1.6,-3.2,-3.2
259.8,-1.6,-3.2,-3.2
259.90000000000003,-1.6,-3.2,-3.2
260.0,-1.6,-3.2,-3.2
260.1,-1.6,-3.2,-3.2
260.2,-1.6,-3.2,-3.2
260.3,-1.6,-3.2,-3.2
260.40000000000003,-1.6,-3.2,-3.2
260.5,-1.6,-3.2,-3.2
260.6,-1.6,-3.2,-3.2
260.7,-1.6,-3.2,-3.2
260.8,-1.6,-3.2,-3.2
260.90000000000003,-1.6,-3.2,-3.2
261.0,-1.6,-3.2,-3.2
261.1,-1.6,-3.2,-3.2
261.2,-1.6,-3.2,-3.2
261.3,-1.6,-3.2,-3.2
261.40000000000003,-1.6,-3.2,-3.2
261.5,-1.6,-3.2,-3.2
261.6,-1.6,-3.2,-3.2
261.7,-1.6,-3.2,-3.2
261.8,-1.6,-3.2,-3.2
261.90000000000003,-1.6,-3.2,-3.2
262.0,-1.6,-3.2,-3.2
262.1,-1.6,-3.2,-3.2
262.2,-1.6,-3.2,-3.2
262.3,-1.6,-3.2,-3.2
262.40000000000003,-1.6,-3.2,-3.2
262.5,-1.6,-3.2,-3.2
262.6,-1.6,-3.2,-3.2
262.7,-1.6,-3.2,-3.2
262.8,-1.6,-3.2,-3.2
262.90000000000003,-1.6,-3.2,-3.2
263.0,-1.6,-3.2,-3.2
263.1,-1.6,-3.2,-3.2
263.2,-1.6,-3.2,-3.2
263.3,-1.6,-3.2,-3.2
263.40000000000003,-1.6,-3.2,-3.2
263.5,-1.6,-3.2,-3.2
263.6,-1.6,-3.2,-3.2
263.7,-1.6,-3.2,-3.2
263.8,-1.6,-3.2,-3.2
263.90000000000003,-1.6,-3.2,-3.2
264.0,-1.6,-3.2,-3.2
264.1,-1.6,-3.2,-3.2
264.2,-1.6,-3.2,-3.2
264.3,-1.6,-3.2,-3.2
264.40000000000003,-1.6,-3.2,-3.2
264.5,-1.6,-3.2,-3.2
264.6,-1.6,-3.2,-3.2
264.7,-1.6,-3.2,-3.2
264.8,-1.6,-3.2,-3.2
264.90000000000003,-1.6,-3.2,-3.2
265.0,-1.6,-3.2,-3.2
265.1,-1.6,-3.2,-3.2
265.2,-1.6,-3.2,-3.2
265.3,-1.6,-3.2,-3.2
265.40000000000003,-1.6,-3.2,-3.2
265.5,-1.6,-3.2,-3.2
265.6,-1.6,-3.2,-3.2
265.7,-1.6,-3.2,-3.2
265.8,-1.6,-3.2,-3.2
265.90000000000003,-1.6,-3.2,-3.2
266.0,-1.6,-3.2,-3.2
266.1,-1.6,-3.2,-3.2
266.2,-1.6,-3.2,-3.2
266.3,-1.6,-3.2,-3.2
266.40000000000003,-1.6,-3.2,-3.2
266.5,-1.6,-3.2,-3.2
266.6,-1.6,-3.2,-3.2
266.7,-1.6,-3.2,-3.2
266.8,-1.6,-3.2,-3.2
266.90000000000003,-1.6,-3.2,-3.2
267.0,-1.6,-3.2,-3.2
267.1,-1.6,-3.2,-3.2
267.2,-1.6,-3.2,-3.2
267.3,-1.6,-3.2,-3.2
267.40000000000003,-1.6,-3.2,-3.2
267.5,-1.6,-3.2,-3.2
267.6,-1.6,-3.2,-3.2
267.7,-1.6,-3.2,-3.2
267.8,-1.6,-3.2,-3.2
267.90000000000003,-1.6,-3.2,-3.2
268.0,-1.6,-3.2,-3.2
268.1,-1.6,-3.2,-3.2
268.2,-1.6,-3.2,-3.2
268.3,-1.6,-3.2,-3.2
268.40000000000003,-1.6,-3.2,-3.2
268.5,-1.6,-3.2,-3.2
268.6,-1.6,-3.2,-3.2
268.7,-1.6,-3.2,-3.2
268.8,-1.6,-3.2,-3.2
268.90000000000003,-1.6,-3.2,-3.2
269.0,-1.6,-3.2,-3.2
269.1,-1.6,-3.2,-3.2
269.2,-1.6,-3.2,-3.2
269.3,-1.6,-3.2,-3.2
269.40000000000003,-1.6,-3.2,-3.2
269.5,-1.6,-3.2,-3.2
269.6,-1.6,-3.2,-3.2
269.7,-1.6,-3.2,-3.2
269.8,-1.6,-3.2,-3.2
269.90000000000003,-1.6,-3.2,-3.2
270.0,-1.6,-3.2,-3.2
270.1,-1.6,-3.2,-3.2
270.2,-1.6,-3.2,-3.2
270.3,-1.6,-3.2,-3.2
270.40000000000003,-1.6,-3.2,-3.2
270.5,-1.6,-3.2,-3.2
270.6,-1.6,-3.2,-3.2
270.7,-1.6,-3.2,-3.2
270.8,-1.6,-3.2,-3.2
270.90000000000003,-1.6,-3.2,-3.2
271.0,-1.6,-3.2,-3.2
271.1,-1.6,-3.2,-3.2
271.2,-1.6,-3.2,-3.2
271.3,-1.6,-3.2,-3.2
271.40000000000003,-1.6,-3.2,-3.2
271.5,-1.6,-3.2,-3.2
271.6,-1.6,-3.2,-3.2
271.7,-1.6,-3.2,-3.2
271.8,-1.6,-3.2,-3.2
271.90000000000003,-1.6,-3.2,-3.2
272.0,-1.6,-3.2,-3.2
272.1,-1.6,-3.2,-3.2
272.2,-1.6,-3.2,-3.2
272.3,-1.6,-3.2,-3.2
272.40000000000003,-1.6,-3.2,-3.2
272.5,-1.6,-3.2,-3.2
272.6,-1.6,-3.2,-3.2
272.7,-1.6,-3.2,-3.2
272.8,-1.6,-3.2,-3.2
272.90000000000003,-1.6,-3.2,-3.2
273.0,-1.6,-3.2,-3.2
273.1,-1.6,-3.2,-3.2
273.2,-1.6,-3.2,-3.2
273.3,-1.6,-3.2,-3.2
273.40000000000003,-1.6,-3.2,-3.2
273.5,-1.6,-3.2,-3.2
273.6,-1.6,-3.2,-3.2
273.7,-1.6,-3.2,-3.2
273.8,-1.6,-3.2,-3.2
273.90000000000003,-1.6,-3.2,-3.2
274.0,-1.6,-3.2,-3.2
274.1,-1.6,-3.2,-3.2
274.2,-1.6,-3.2,-3.2
274.3,-1.6,-3.2,-3.2
274.40000000000003,-1.6,-3.2,-3.2
274.5,-1.6,-3.2,-3.2
274.6,-1.6,-3.2,-3.2
274.7,-1.6,-3.2,-3.2
274.8,-1.6,-3.2,-3.2
274.90000000000003,-1.6,-3.2,-3.2
275.0,-1.6,-3.2,-3.2
275.1,-1.6,-3.2,-3.2
275.2,-1.6,-3.2,-3.2
275.3,-1.6,-3.2,-3.2
275.40000000000003,-1.6,-3.2,-3.2
275.5,-1.6,-3.2,-3.2
275.6,-1.6,-3.2,-3.2
275.7,-1.6,-3.2,-3.2
275.8,-1.6,-3.2,-3.2
275.90000000000003,-1.6,-3.2,-3.2
276.0,-1.6,-3.2,-3.2
276.1,-1.6,-3.2,-3.2
276.2,-1.6,-3.2,-3.2
276.3,-1.6,-3.2,-3.2
276.40000000000003,-1.6,-3.2,-3.2
276.5,-1.6,-3.2,-3.2
276.6,-1.6,-3.2,-3.2
276.7,-1.6,-3.2,-3.2
276.8,-1.6,-3.2,-3.2
276.90000000000003,-1.6,-3.2,-3.2
277.0,-1.6,-3.2,-3.2
277.1,-1.6,-3.2,-3.2
277.2,-1.6,-3.2,-3.2
277.3,-1.6,-3.2,-3.2
277.40000000000003,-1.6,-3.2,-3.2
277.5,-1.6,-3.2,-3.2
277.6,-1.6,-3.2,-3.2
277.7,-1.6,-3.2,-3.2
277.8,-1.6,-3.2,-3.2
277.90000000000003,-1.6,-3.2,-3.2
278.0,-1.6,-3.2,-3.2
278.1,-1.6,-3.2,-3.2
278.2,-1.6,-3.2,-3.2
278.3,-1.6,-3.2,-3.2
278.40000000000003,-1.6,-3.2,-3.2
278.5,-1.6,-3.2,-3.2
278.6,-1.6,-3.2,-3.2
278.7,-1.6,-3.2,-3.2
278.8,-1.6,-3.2,-3.2
278.90000000000003,-1.6,-3.2,-3.2
279.0,-1.6,-3.2,-3.2
279.1,-1.6,-3.2,-3.2
279.2,-1.6,-3.2,-3.2
279.3,-1.6,-3.2,-3.2
279.40000000000003,-1.6,-3.2,-3.2
279.5,-1.6,-3.2,-3.2
279.6,-1.6,-3.2,-3.2
279.7,-1.6,-3.2,-3.2
279.8,-1.6,-3.2,-3.2
279.90000000000003,-1.6,-3.2,-3.2
280.0,-1.6,-3.2,-3.2
280.1,-1.6,-3.2,-3.2
280.2,-1.6,-3.2,-3.2
280.3,-1.6,-3.2,-3.2
280.40000000000003,-1.6,-3.2,-3.2
280.5,-1.6,-3.2,-3.2
280.6,-1.6,-3.2,-3.2
280.7,-1.6,-3.2,-3.2
280.8,-1.6,-3.2,-3.2
280.90000000000003,-1.6,-3.2,-3.2
281.0,-1.6,-3.2,-3.2
281.1,-1.6,-3.2,-3.2
281.2,-1.6,-3.2,-3.2
281.3,-1.6,-3.2,-3.2
281.40000000000003,-1.6,-3.2,-3.2
281.5,-1.6,-3.2,-3.2
281.6,-1.6,-3.2,-3.2
281.7,-1.6,-3.2,-3.2
281.8,-1.6,-3.2,-3.2
281.90000000000003,-1.6,-3.2,-3.2
282.0,-1.6,-3.2,-3.2
282.1,-1.6,-3.2,-3.2
282.2,-1.6,-3.2,-3.2
282.3,-1.6,-3.2,-3.2
282.40000000000003,-1.6,-3.2,-3.2
282.5,-1.6,-3.2,-3.2
282.6,-1.6,-3.2,-3.2
282.7,-1.6,-3.2,-3.2
282.8,-1.6,-3.2,-3.2
282.90000000000003,-1.6,-3.2,-3.2
283.0,-1.6,-3.2,-3.2
283.1,-1.6,-3.2,-3.2
283.2,-1.6,-3.2,-3.2
283.3,-1.6,-3.2,-3.2
283.40000000000003,-1.6,-3.2,-3.2
283.5,-1.6,-3.2,-3.2
283.6,-1.6,-3.2,-3.2
283.7,-1.6,-3.2,-3.2
283.8,-1.6,-3.2,-3.2
283.90000000000003,-1.6,-3.2,-3.2
284.0,-1.6,-3.2,-3.2
284.1,-1.6,-3.2,-3.2
284.2,-1.6,-3.2,-3.2
284.3,-1.6,-3.2,-3.2
284.40000000000003,-1.6,-3.2,-3.2
284.5,-1.6,-3.2,-3.2
284.6,-1.6,-3.2,-3.2
284.7,-1.6,-3.2,-3.2
284.8,-1.6,-3.2,-3.2
284.90000000000003,-1.6,-3.2,-3.2
285.0,-1.6,-3.2,-3.2
285.1,-1.6,-3.2,-3.2
285.2,-1.6,-3.2,-3.2
285.3,-1.6,-3.2,-3.2
285.40000000000003,-1.6,-3.2,-3.2
285.5,-1.6,-3.2,-3.2
285.6,-1.6,-3.2,-3.2
285.7,-1.6,-3.2,-3.2
285.8,-1.6,-3.2,-3.2
285.90000000000003,-1.6,-3.2,-3.2
286.0,-1.6,-3.2,-3.2
286.1,-1.6,-3.2,-3.2
286.2,-1.6,-3.2,-3.2
286.3,-1.6,-3.2,-3.2
286.40000000000003,-1.6,-3.2,-3.2
286.5,-1.6,-3.2,-3.2
286.6,-1.6,-3.2,-3.2
286.7,-1.6,-3.2,-3.2
286.8,-1.6,-3.2,-3.2
286.90000000000003,-1.6,-3.2,-3.2
287.0,-1.6,-3.2,-3.2
287.1,-1.6,-3.2,-3.2
287.2,-1.6,-3.2,-3.2
287.3,-1.6,-3.2,-3.2
287.40000000000003,-1.6,-3.2,-3.2
287.5,-1.6,-3.2,-3.2
287.6,-1.6,-3.2,-3.2
287.7,-1.6,-3.2,-3.2
287.8,-1.6,-3.2,-3.2
287.90000000000003,-1.6,-3.2,-3.2
288.0,-1.6,-3.2,-3.2
288.1,-1.6,-3.2,-3.2
288.2,-1.6,-3.2,-3.2
288.3,-1.6,-3.2,-3.2
288.40000000000003,-1.6,-3.2,-3.2
288.5,-1.6,-3.2,-3.2
288.6,-1.6,-3.2,-3.2
288.7,-1.6,-3.2,-3.2
288.8,-1.6,-3.2,-3.2
288.90000000000003,-1.6,-3.2,-3.2
289.0,-1.6,-3.2,-3.2
289.1,-1.6,-3.2,-3.2
289.2,-1.6,-3.2,-3.2
289.3,-1.6,-3.2,-3.2
289.40000000000003,-1.6,-3.2,-3.2
289.5,-1.6,-3.2,-3.2
289.6,-1.6,-3.2,-3.2
289.7,-1.6,-3.2,-3.2
289.8,-1.6,-3.2,-3.2
289.90000000000003,-1.6,-3.2,-3.2
290.0,-1.6,-3.2,-3.2
290.1,-1.6,-3.2,-3.2
290.2,-1.6,-3.2,-3.2
290.3,-1.6,-3.2,-3.2
290.40000000000003,-1.6,-3.2,-3.2
290.5,-1.6,-3.2,-3.2
290.6,-1.6,-3.2,-3.2
290.7,-1.6,-3.2,-3.2
290.8,-1.6,-3.2,-3.2
290.90000000000003,-1.6,-3.2,-3.2
291.0,-1.6,-3.2,-3.2
291.1,-1.6,-3.2,-3.2
291.2,-1.6,-3.2,-3.2
291.3,-1.6,-3.2,-3.2
291.40000000000003,-1.6,-3.2,-3.2
291.5,-1.6,-3.2,-3.2
291.6,-1.6,-3.2,-3.2
291.7,-1.6,-3.2,-3.2
291.8,-1.6,-3.2,-3.2
291.90000000000003,-1.6,-3.2,-3.2
292.0,-1.6,-3.2,-3.2
292.1,-1.6,-3.2,-3.2
292.2,-1.6,-3.2,-3.2
292.3,-1.6,-3.2,-3.2
292.40000000000003,-1.6,-3.2,-3.2
292.5,-1.6,-3.2,-3.2
292.6,-1.6,-3.2,-3.2
292.7,-1.6,-3.2,-3.2
292.8,-1.6,-3.2,-3.2
292.90000000000003,-1.6,-3.2,-3.2
293.0,-1.6,-3.2,-3.2
293.1,-1.6,-3.2,-3.2
293.2,-1.6,-3.2,-3.2
293.3,-1.6,-3.2,-3.2
293.40000000000003,-1.6,-3.2,-3.2
293.5,-1.6,-3.2,-3.2
293.6,-1.6,-3.2,-3.2
293.7,-1.6,-3.2,-3.2
293.8,-1.6,-3.2,-3.2
293.90000000000003,-1.6,-3.2,-3.2
294.0,-1.6,-3.2,-3.2
294.1,-1.6,-3.2,-3.2
294.2,-1.6,-3.2,-3.2
294.3,-1.6,-3.2,-3.2
294.40000000000003,-1.6,-3.2,-3.2
294.5,-1.6,-3.2,-3.2
294.6,-1.6,-3.2,-3.2
294.7,-1.6,-3.2,-3.2
294.8,-1.6,-3.2,-3.2
294.90000000000003,-1.6,-3.2,-3.2
295.0,-1.6,-3.2,-3.2
295.1,-1.6,-3.2,-3.2
295.2,-1.6,-3.2,-3.2
295.3,-1.6,-3.2,-3.2
295.40000000000003,-1.6,-3.2,-3.2
295.5,-1.6,-3.2,-3.2
295.6,-1.6,-3.2,-3.2
295.7,-1.6,-3.2,-3.2
295.8,-1.6,-3.2,-3.2
295.90000000000003,-1.6,-3.2,-3.2
296.0,-1.6,-3.2,-3.2
296.1,-1.6,-3.2,-3.2
296.2,-1.6,-3.2,-3.2
296.3,-1.6,-3.2,-3.2
296.40000000000003,-1.6,-3.2,-3.2
296.5,-1.6,-3.2,-3.2
296.6,-1.6,-3.2,-3.2
296.7,-1.6,-3.2,-3.2
296.8,-1.6,-3.2,-3.2
296.90000000000003,-1.6,-3.2,-3.2
297.0,-1.6,-3.2,-3.2
297.1,-1.6,-3.2,-3.2
297.2,-1.6,-3.2,-3.2
297.3,-1.6,-3.2,-3.2
297.40000000000003,-1.6,-3.2,-3.2
297.5,-1.6,-3.2,-3.2
297.6,-1.6,-3.2,-3.2
297.7,-1.6,-3.2,-3.2
297.8,-1.6,-3.2,-3.2
297.90000000000003,-1.6,-3.2,-3.2
298.0,-1.6,-3.2,-3.2
298.1,-1.6,-3.2,-3.2
298.2,-1.6,-3.2,-3.2
298.3,-1.6,-3.2,-3.2
298.40000000000003,-1.6,-3.2,-3.2
298.5,-1.6,-3.2,-3.2
298.6,-1.6,-3.2,-3.2
298.7,-1.6,-3.2,-3.2
298.8,-1.6,-3.2,-3.2
298.90000000000003,-1.6,-3.2,-3.2
299.0,-1.6,-3.2,-3.2
299.1,-1.6,-3.2,-3.2
299.2,-1.6,-3.2,-3.2
299.3,-1.6,-3.2,-3.2
299.40000000000003,-1.6,-3.2,-3.2
299.5,-1.6,-3.2,-3.2
299.6,-1.6,-3.2,-3.2
299.7,-1.6,-3.2,-3.2
299.8,-1.6,-3.2,-3.2
299.90000000000003,-1.6,-3.2,-3.2
300.0,-1.6,-3.2,-3.2
300.1,-1.6,-3.2,-3.2
300.2,-1.6,-3.2,-3.2
300.3,-1.6,-3.2,-3.2
300.40000000000003,-1.6,-3.2,-3.2
300.5,-1.6,-3.2,-3.2
300.6,-1.6,-3.2,-3.2
300.7,-1.6,-3.2,-3.2
300.8,-1.6,-3.2,-3.2
300.90000000000003,-1.6,-3.2,-3.2
301.0,-1.6,-3.2,-3.2
301.1,-1.6,-3.2,-3.2
301.2,-1.6,-3.2,-3.2
301.3,-1.6,-3.2,-3.2
301.40000000000003,-1.6,-3.2,-3.2
301.5,-1.6,-3.2,-3.2
301.6,-1.6,-3.2,-3.2
301.7,-1.6,-3.2,-3.2
301.8,-1.6,-3.2,-3.2
301.90000000000003,-1.6,-3.2,-3.2
302.0,-1.6,-3.2,-3.2
302.1,-1.6,-3.2,-3.2
302.2,-1.6,-3.2,-3.2
302.3,-1.6,-3.2,-3.2
302.40000000000003,-1.6,-3.2,-3.2
302.5,-1.6,-3.2,-3.2
302.6,-1.6,-3.2,-3.2
302.7,-1.6,-3.2,-3.2
302.8,-1.6,-3.2,-3.2
302.90000000000003,-1.6,-3.2,-3.2
303.0,-1.6,-3.2,-3.2
303.1,-1.6,-3.2,-3.2
303.2,-1.6,-3.2,-3.2
303.3,-1.6,-3.2,-3.2
303.40000000000003,-1.6,-3.2,-3.2
303.5,-1.6,-3.2,-3.2
303.6,-1.6,-3.2,-3.2
303.7,-1.6,-3.2,-3.2
303.8,-1.6,-3.2,-3.2
303.90000000000003,-1.6,-3.2,-3.2
304.0,-1.6,-3.2,-3.2
304.1,-1.6,-3.2,-3.2
304.2,-1.6,-3.2,-3.2
304.3,-1.6,-3.2,-3.2
304.40000000000003,-1.6,-3.2,-3.2
304.5,-1.6,-3.2,-3.2
304.6,-1.6,-3.2,-3.2
304.7,-1.6,-3.2,-3.2
304.8,-1.6,-3.2,-3.2
304.90000000000003,-1.6,-3.2,-3.2
305.0,-1.6,-3.2,-3.2
305.1,-1.6,-3.2,-3.2
305.2,-1.6,-3.2,-3.2
305.3,-1.6,-3.2,-3.2
305.40000000000003,-1.6,-3.2,-3.2
305.5,-1.6,-3.2,-3.2
305.6,-1.6,-3.2,-3.2
305.7,-1.6,-3.2,-3.2
305.8,-1.6,-3.2,-3.2
305.90000000000003,-1.6,-3.2,-3.2
306.0,-1.6,-3.2,-3.2
306.1,-1.6,-3.2,-3.2
306.2,-1.6,-3.2,-3.2
306.3,-1.6,-3.2,-3.2
306.40000000000003,-1.6,-3.2,-3.2
306.5,-1.6,-3.2,-3.2
306.6,-1.6,-3.2,-3.2
306.7,-1.6,-3.2,-3.2
306.8,-1.6,-3.2,-3.2
306.90000000000003,-1.6,-3.2,-3.2
307.0,-1.6,-3.2,-3.2
307.1,-1.6,-3.2,-3.2
307.20000000000005,-1.6,-3.2,-3.2
307.3,-1.6,-3.2,-3.2
307.40000000000003,-1.6,-3.2,-3.2
307.5,-1.6,-3.2,-3.2
307.6,-1.6,-3.2,-3.2
307.70000000000005,-1.6,-3.2,-3.2
307.8,-1.6,-3.2,-3.2
307.90000000000003,-1.6,-3.2,-3.2
308.0,-1.6,-3.2,-3.2
308.1,-1.6,-3.2,-3.2
308.20000000000005,-1.6,-3.2,-3.2
308.3,-1.6,-3.2,-3.2
308.40000000000003,-1.6,-3.2,-3.2
308.5,-1.6,-3.2,-3.2
308.6,-1.6,-3.2,-3.2
308.70000000000005,-1.6,-3.2,-3.2
308.8,-1.6,-3.2,-3.2
308.90000000000003,-1.6,-3.2,-3.2
309.0,-1.6,-3.2,-3.2
309.1,-1.6,-3.2,-3.2
309.20000000000005,-1.6,-3.2,-3.2
309.3,-1.6,-3.2,-3.2
309.40000000000003,-1.6,-3.2,-3.2
309.5,-1.6,-3.2,-3.2
309.6,-1.6,-3.2,-3.2
309.70000000000005,-1.6,-3.2,-3.2
309.8,-1.6,-3.2,-3.2
309.90000000000003,-1.6,-3.2,-3.2
310.0,-1.6,-3.2,-3.2
310.1,-1.6,-3.2,-3.2
310.20000000000005,-1.6,-3.2,-3.2
310.3,-1.6,-3.2,-3.2
310.40000000000003,-1.6,-3.2,-3.2
310.5,-1.6,-3.2,-3.2
310.6,-1.6,-3.2,-3.2
310.70000000000005,-1.6,-3.2,-3.2
310.8,-1.6,-3.2,-3.2
310.90000000000003,-1.6,-3.2,-3.2
311.0,-1.6,-3.2,-3.2
311.1,-1.6,-3.2,-3.2
311.20000000000005,-1.6,-3.2,-3.2
311.3,-1.6,-3.2,-3.2
311.40000000000003,-1.6,-3.2,-3.2
311.5,-1.6,-3.2,-3.2
311.6,-1.6,-3.2,-3.2
311.70000000000005,-1.6,-3.2,-3.2
311.8,-1.6,-3.2,-3.2
311.90000000000003,-1.6,-3.2,-3.2
312.0,-1.6,-3.2,-3.2
312.1,-1.6,-3.2,-3.2
312.20000000000005,-1.6,-3.2,-3.2
312.3,-1.6,-3.2,-3.2
312.40000000000003,-1.6,-3.2,-3.2
312.5,-1.6,-3.2,-3.2
312.6,-1.6,-3.2,-3.2
312.70000000000005,-1.6,-3.2,-3.2
312.8,-1.6,-3.2,-3.2
312.90000000000003,-1.6,-3.2,-3.2
313.0,-1.6,-3.2,-3.2
313.1,-1.6,-3.2,-3.2
313.20000000000005,-1.6,-3.2,-3.2
313.3,-1.6,-3.2,-3.2
313.40000000000003,-1.6,-3.2,-3.2
313.5,-1.6,-3.2,-3.2
313.6,-1.6,-3.2,-3.2
313.70000000000005,-1.6,-3.2,-3.2
313.8,-1.6,-3.2,-3.2
313.90000000000003,-1.6,-3.2,-3.2
314.0,-1.6,-3.2,-3.2
314.1,-1.6,-3.2,-3.2
314.20000000000005,-1.6,-3.2,-3.2
314.3,-1.6,-3.2,-3.2
314.40000000000003,-1.6,-3.2,-3.2
314.5,-1.6,-3.2,-3.2
314.6,-1.6,-3.2,-3.2
314.70000000000005,-1.6,-3.2,-3.2
314.8,-1.6,-3.2,-3.2
314.90000000000003,-1.6,-3.2,-3.2
315.0,-1.6,-3.2,-3.2
315.1,-1.6,-3.2,-3.2
315.20000000000005,-1.6,-3.2,-3.2
315.3,-1.6,-3.2,-3.2
315.40000000000003,-1.6,-3.2,-3.2
315.5,-1.6,-3.2,-3.2
315.6,-1.6,-3.2,-3.2
315.70000000000005,-1.6,-3.2,-3.2
315.8,-1.6,-3.2,-3.2
315.90000000000003,-1.6,-3.2,-3.2
316.0,-1.6,-3.2,-3.2
316.1,-1.6,-3.2,-3.2
316.20000000000005,-1.6,-3.2,-3.2
316.3,-1.6,-3.2,-3.2
316.40000000000003,-1.6,-3.2,-3.2
316.5,-1.6,-3.2,-3.2
316.6,-1.6,-3.2,-3.2
316.70000000000005,-1.6,-3.2,-3.2
316.8,-1.6,-3.2,-3.2
316.90000000000003,-1.6,-3.2,-3.2
317.0,-1.6,-3.2,-3.2
317.1,-1.6,-3.2,-3.2
317.20000000000005,-1.6,-3.2,-3.2
317.3,-1.6,-3.2,-3.2
317.40000000000003,-1.6,-3.2,-3.2
317.5,-1.6,-3.2,-3.2
317.6,-1.6,-3.2,-3.2
317.70000000000005,-1.6,-3.2,-3.2
317.8,-1.6,-3.2,-3.2
317.90000000000003,-1.6,-3.2,-3.2
318.0,-1.6,-3.2,-3.2
318.1,-1.6,-3.2,-3.2
318.20000000000005,-1.6,-3.2,-3.2
318.3,-1.6,-3.2,-3.2
318.40000000000003,-1.6,-3.2,-3.2
318.5,-1.6,-3.2,-3.2
318.6,-1.6,-3.2,-3.2
318.70000000000005,-1.6,-3.2,-3.2
318.8,-1.6,-3.2,-3.2
318.90000000000003,-1.6,-3.2,-3.2
319.0,-1.6,-3.2,-3.2
319.1,-1.6,-3.2,-3.2
319.20000000000005,-1.6,-3.2,-3.2
319.3,-1.6,-3.2,-3.2
319.40000000000003,-1.6,-3.2,-3.2
319.5,-1.6,-3.2,-3.2
319.6,-1.6,-3.2,-3.2
319.70000000000005,-1.6,-3.2,-3.2
319.8,-1.6,-3.2,-3.2
319.90000000000003,-1.6,-3.2,-3.2
320.0,-1.6,-3.2,-3.2
320.1,-1.6,-3.2,-3.2
320.20000000000005,-1.6,-3.2,-3.2
320.3,-1.6,-3.2,-3.2
320.40000000000003,-1.6,-3.2,-3.2
320.5,-1.6,-3.2,-3.2
320.6,-1.6,-3.2,-3.2
320.70000000000005,-1.6,-3.2,-3.2
320.8,-1.6,-3.2,-3.2
320.90000000000003,-1.6,-3.2,-3.2
321.0,-1.6,-3.2,-3.2
321.1,-1.6,-3.2,-3.2
321.20000000000005,-1.6,-3.2,-3.2
321.3,-1.6,-3.2,-3.2
321.40000000000003,-1.6,-3.2,-3.2
321.5,-1.6,-3.2,-3.2
321.6,-1.6,-3.2,-3.2
321.70000000000005,-1.6,-3.2,-3.2
321.8,-1.6,-3.2,-3.2
321.90000000000003,-1.6,-3.2,-3.2
322.0,-1.6,-3.2,-3.2
322.1,-1.6,-3.2,-3.2
322.20000000000005,-1.6,-3.2,-3.2
322.3,-1.6,-3.2,-3.2
322.40000000000003,-1.6,-3.2,-3.2
322.5,-1.6,-3.2,-3.2
322.6,-1.6,-3.2,-3.2
322.70000000000005,-1.6,-3.2,-3.2
322.8,-1.6,-3.2,-3.2
322.90000000000003,-1.6,-3.2,-3.2
323.0,-1.6,-3.2,-3.2
323.1,-1.6,-3.2,-3.2
323.20000000000005,-1.6,-3.2,-3.2
323.3,-1.6,-3.2,-3.2
323.40000000000003,-1.6,-3.2,-3.2
323.5,-1.6,-3.2,-3.2
323.6,-1.6,-3.2,-3.2
323.70000000000005,-1.6,-3.2,-3.2
323.8,-1.6,-3.2,-3.2
323.90000000000003,-1.6,-3.2,-3.2
324.0,-1.6,-3.2,-3.2
324.1,-1.6,-3.2,-3.2
324.20000000000005,-1.6,-3.2,-3.2
324.3,-1.6,-3.2,-3.2
324.40000000000003,-1.6,-3.2,-3.2
324.5,-1.6,-3.2,-3.2
324.6,-1.6,-3.2,-3.2
324.70000000000005,-1.6,-3.2,-3.2
324.8,-1.6,-3.2,-3.2
324.90000000000003,-1.6,-3.2,-3.2
325.0,-1.6,-3.2,-3.2
325.1,-1.6,-3.2,-3.2
325.20000000000005,-1.6,-3.2,-3.2
325.3,-1.6,-3.2,-3.2
325.40000000000003,-1.6,-3.2,-3.2
325.5,-1.6,-3.2,-3.2
325.6,-1.6,-3.2,-3.2
325.70000000000005,-1.6,-3.2,-3.2
325.8,-1.6,-3.2,-3.2
325.90000000000003,-1.6,-3.2,-3.2
326.0,-1.6,-3.2,-3.2
326.1,-1.6,-3.2,-3.2
326.20000000000005,-1.6,-3.2,-3.2
326.3,-1.6,-3.2,-3.2
326.40000000000003,-1.6,-3.2,-3.2
326.5,-1.6,-3.2,-3.2
326.6,-1.6,-3.2,-3.2
326.70000000000005,-1.6,-3.2,-3.2
326.8,-1.6,-3.2,-3.2
326.90000000000003,-1.6,-3.2,-3.2
327.0,-1.6,-3.2,-3.2
327.1,-1.6,-3.2,-3.2
327.20000000000005,-1.6,-3.2,-3.2
327.3,-1.6,-3.2,-3.2
327.40000000000003,-1.6,-3.2,-3.2
327.5,-1.6,-3.2,-3.2
327.6,-1.6,-3.2,-3.2
327.70000000000005,-1.6,-3.2,-3.2
327.8,-1.6,-3.2,-3.2
327.90000000000003,-1.6,-3.2,-3.2
328.0,-1.6,-3.2,-3.2
328.1,-1.6,-3.2,-3.2
328.20000000000005,-1.6,-3.2,-3.2
328.3,-1.6,-3.2,-3.2
328.40000000000003,-1.6,-3.2,-3.2
328.5,-1.6,-3.2,-3.2
328.6,-1.6,-3.2,-3.2
328.70000000000005,-1.6,-3.2,-3.2
328.8,-1.6,-3.2,-3.2
328.90000000000003,-1.6,-3.2,-3.2
329.0,-1.6,-3.2,-3.2
329.1,-1.6,-3.2,-3.2
329.20000000000005,-1.6,-3.2,-3.2
329.3,-1.6,-3.2,-3.2
329.40000000000003,-1.6,-3.2,-3.2
329.5,-1.6,-3.2,-3.2
329.6,-1.6,-3.2,-3.2
329.70000000000005,-1.6,-3.2,-3.2
329.8,-1.6,-3.2,-3.2
329.90000000000003,-1.6,-3.2,-3.2
330.0,-1.6,-3.2,-3.2
330.1,-1.6,-3.2,-3.2
330.20000000000005,-1.6,-3.2,-3.2
330.3,-1.6,-3.2,-3.2
330.40000000000003,-1.6,-3.2,-3.2
330.5,-1.6,-3.2,-3.2
330.6,-1.6,-3.2,-3.2
330.70000000000005,-1.6,-3.2,-3.2
330.8,-1.6,-3.2,-3.2
330.90000000000003,-1.6,-3.2,-3.2
331.0,-1.6,-3.2,-3.2
331.1,-1.6,-3.2,-3.2
331.20000000000005,-1.6,-3.2,-3.2
331.3,-1.6,-3.2,-3.2
331.40000000000003,-1.6,-3.2,-3.2
331.5,-1.6,-3.2,-3.2
331.6,-1.6,-3.2,-3.2
331.70000000000005,-1.6,-3.2,-3.2
331.8,-1.6,-3.2,-3.2
331.90000000000003,-1.6,-3.2,-3.2
332.0,-1.6,-3.2,-3.2
332.1,-1.6,-3.2,-3.2
332.20000000000005,-1.6,-3.2,-3.2
332.3,-1.6,-3.2,-3.2
332.40000000000003,-1.6,-3.2,-3.2
332.5,-1.6,-3.2,-3.2
332.6,-1.6,-3.2,-3.2
332.70000000000005,-1.6,-3.2,-3.2
332.8,-1.6,-3.2,-3.2
332.90000000000003,-1.6,-3.2,-3.2
333.0,-1.6,-3.2,-3.2
333.1,-1.6,-3.2,-3.2
333.20000000000005,-1.6,-3.2,-3.2
333.3,-1.6,-3.2,-3.2
333.40000000000003,-1.6,-3.2,-3.2
333.5,-1.6,-3.2,-3.2
333.6,-1.6,-3.2,-3.2
333.70000000000005,-1.6,-3.2,-3.2
333.8,-1.6,-3.2,-3.2
333.90000000000003,-1.6,-3.2,-3.2
334.0,-1.6,-3.2,-3.2
334.1,-1.6,-3.2,-3.2
334.20000000000005,-1.6,-3.2,-3.2
334.3,-1.6,-3.2,-3.2
334.40000000000003,-1.6,-3.2,-3.2
334.5,-1.6,-3.2,-3.2
334.6,-1.6,-3.2,-3.2
334.70000000000005,-1.6,-3.2,-3.2
334.8,-1.6,-3.2,-3.2
334.90000000000003,-1.6,-3.2,-3.2
335.0,-1.6,-3.2,-3.2
335.1,-1.6,-3.2,-3.2
335.20000000000005,-1.6,-3.2,-3.2
335.3,-1.6,-3.2,-3.2
335.40000000000003,-1.6,-3.2,-3.2
335.5,-1.6,-3.2,-3.2
335.6,-1.6,-3.2,-3.2
335.70000000000005,-1.6,-3.2,-3.2
335.8,-1.6,-3.2,-3.2
335.90000000000003,-1.6,-3.2,-3.2
336.0,-1.6,-3.2,-3.2
336.1,-1.6,-3.2,-3.2
336.20000000000005,-1.6,-3.2,-3.2
336.3,-1.6,-3.2,-3.2
336.40000000000003,-1.6,-3.2,-3.2
336.5,-1.6,-3.2,-3.2
336.6,-1.6,-3.2,-3.2
336.70000000000005,-1.6,-3.2,-3.2
336.8,-1.6,-3.2,-3.2
336.90000000000003,-1.6,-3.2,-3.2
337.0,-1.6,-3.2,-3.2
337.1,-1.6,-3.2,-3.2
337.20000000000005,-1.6,-3.2,-3.2
337.3,-1.6,-3.2,-3.2
337.40000000000003,-1.6,-3.2,-3.2
337.5,-1.6,-3.2,-3.2
337.6,-1.6,-3.2,-3.2
337.70000000000005,-1.6,-3.2,-3.2
337.8,-1.6,-3.2,-3.2
337.90000000000003,-1.6,-3.2,-3.2
338.0,-1.6,-3.2,-3.2
338.1,-1.6,-3.2,-3.2
338.20000000000005,-1.6,-3.2,-3.2
338.3,-1.6,-3.2,-3.2
338.40000000000003,-1.6,-3.2,-3.2
338.5,-1.6,-3.2,-3.2
338.6,-1.6,-3.2,-3.2
338.70000000000005,-1.6,-3.2,-3.2
338.8,-1.6,-3.2,-3.2
338.90000000000003,-1.6,-3.2,-3.2
339.0,-1.6,-3.2,-3.2
339.1,-1.6,-3.2,-3.2
339.20000000000005,-1.6,-3.2,-3.2
339.3,-1.6,-3.2,-3.2
339.40000000000003,-1.6,-3.2,-3.2
339.5,-1.6,-3.2,-3.2
339.6,-1.6,-3.2,-3.2
339.70000000000005,-1.6,-3.2,-3.2
339.8,-1.6,-3.2,-3.2
339.90000000000003,-1.6,-3.2,-3.2
340.0,-1.6,-3.2,-3.2
340.1,-1.6,-3.2,-3.2
340.20000000000005,-1.6,-3.2,-3.2
340.3,-1.6,-3.2,-3.2
340.40000000000003,-1.6,-3.2,-3.2
340.5,-1.6,-3.2,-3.2
340.6,-1.6,-3.2,-3.2
340.70000000000005,-1.6,-3.2,-3.2
340.8,-1.6,-3.2,-3.2
340.90000000000003,-1.6,-3.2,-3.2
341.0,-1.6,-3.2,-3.2
341.1,-1.6,-3.2,-3.2
341.20000000000005,-1.6,-3.2,-3.2
341.3,-1.6,-3.2,-3.2
341.40000000000003,-1.6,-3.2,-3.2
341.5,-1.6,-3.2,-3.2
341.6,-1.6,-3.2,-3.2
341.70000000000005,-1.6,-3.2,-3.2
341.8,-1.6,-3.2,-3.2
341.90000000000003,-1.6,-3.2,-3.2
342.0,-1.6,-3.2,-3.2
342.1,-1.6,-3.2,-3.2
342.20000000000005,-1.6,-3.2,-3.2
342.3,-1.6,-3.2,-3.2
342.40000000000003,-1.6,-3.2,-3.2
342.5,-1.6,-3.2,-3.2
342.6,-1.6,-3.2,-3.2
342.70000000000005,-1.6,-3.2,-3.2
342.8,-1.6,-3.2,-3.2
342.90000000000003,-1.6,-3.2,-3.2
343.0,-1.6,-3.2,-3.2
343.1,-1.6,-3.2,-3.2
343.20000000000005,-1.6,-3.2,-3.2
343.3,-1.6,-3.2,-3.2
343.40000000000003,-1.6,-3.2,-3.2
343.5,-1.6,-3.2,-3.2
343.6,-1.6,-3.2,-3.2
343.70000000000005,-1.6,-3.2,-3.2
343.8,-1.6,-3.2,-3.2
343.90000000000003,-1.6,-3.2,-3.2
344.0,-1.6,-3.2,-3.2
344.1,-1.6,-3.2,-3.2
344.20000000000005,-1.6,-3.2,-3.2
344.3,-1.6,-3.2,-3.2
344.40000000000003,-1.6,-3.2,-3.2
344.5,-1.6,-3.2,-3.2
344.6,-1.6,-3.2,-3.2
344.70000000000005,-1.6,-3.2,-3.2
344.8,-1.6,-3.2,-3.2
344.90000000000003,-1.6,-3.2,-3.2
345.0,-1.6,-3.2,-3.2
345.1,-1.6,-3.2,-3.2
345.20000000000005,-1.6,-3.2,-3.2
345.3,-1.6,-3.2,-3.2
345.40000000000003,-1.6,-3.2,-3.2
345.5,-1.6,-3.2,-3.2
345.6,-1.6,-3.2,-3.2
345.70000000000005,-1.6,-3.2,-3.2
345.8,-1.6,-3.2,-3.2
345.90000000000003,-1.6,-3.2,-3.2
346.0,-1.6,-3.2,-3.2
346.1,-1.6,-3.2,-3.2
346.20000000000005,-1.6,-3.2,-3.2
346.3,-1.6,-3.2,-3.2
346.40000000000003,-1.6,-3.2,-3.2
346.5,-1.6,-3.2,-3.2
346.6,-1.6,-3.2,-3.2
346.70000000000005,-1.6,-3.2,-3.2
346.8,-1.6,-3.2,-3.2
346.90000000000003,-1.6,-3.2,-3.2
347.0,-1.6,-3.2,-3.2
347.1,-1.6,-3.2,-3.2
347.20000000000005,-1.6,-3.2,-3.2
347.3,-1.6,-3.2,-3.2
347.40000000000003,-1.6,-3.2,-3.2
347.5,-1.6,-3.2,-3.2
347.6,-1.6,-3.2,-3.2
347.70000000000005,-1.6,-3.2,-3.2
347.8,-1.6,-3.2,-3.2
347.90000000000003,-1.6,-3.2,-3.2
348.0,-1.6,-3.2,-3.2
348.1,-1.6,-3.2,-3.2
348.20000000000005,-1.6,-3.2,-3.2
348.3,-1.6,-3.2,-3.2
348.40000000000003,-1.6,-3.2,-3.2
348.5,-1.6,-3.2,-3.2
348.6,-1.6,-3.2,-3.2
348.70000000000005,-1.6,-3.2,-3.2
348.8,-1.6,-3.2,-3.2
348.90000000000003,-1.6,-3.2,-3.2
349.0,-1.6,-3.2,-3.2
349.1,-1.6,-3.2,-3.2
349.20000000000005,-1.6,-3.2,-3.2
349.3,-1.6,-3.2,-3.2
349.40000000000003,-1.6,-3.2,-3.2
349.5,-1.6,-3.2,-3.2
349.6,-1.6,-3.2,-3.2
349.70000000000005,-1.6,-3.2,-3.2
349.8,-1.6,-3.2,-3.2
349.90000000000003,-1.6,-3.2,-3.2
350.0,-1.6,-3.2,-3.2
350.1,-1.6,-3.2,-3.2
350.20000000000005,-1.6,-3.2,-3.2
350.3,-1.6,-3.2,-3.2
350.40000000000003,-1.6,-3.2,-3.2
350.5,-1.6,-3.2,-3.2
350.6,-1.6,-3.2,-3.2
350.70000000000005,-1.6,-3.2,-3.2
350.8,-1.6,-3.2,-3.2
350.90000000000003,-1.6,-3.2,-3.2
351.0,-1.6,-3.2,-3.2
351.1,-1.6,-3.2,-3.2
351.20000000000005,-1.6,-3.2,-3.2
351.3,-1.6,-3.2,-3.2
351.40000000000003,-1.6,-3.2,-3.2
351.5,-1.6,-3.2,-3.2
351.6,-1.6,-3.2,-3.2
351.70000000000005,-1.6,-3.2,-3.2
351.8,-1.6,-3.2,-3.2
351.90000000000003,-1.6,-3.2,-3.2
352.0,-1.6,-3.2,-3.2
352.1,-1.6,-3.2,-3.2
352.20000000000005,-1.6,-3.2,-3.2
352.3,-1.6,-3.2,-3.2
352.40000000000003,-1.6,-3.2,-3.2
352.5,-1.6,-3.2,-3.2
352.6,-1.6,-3.2,-3.2
352.70000000000005,-1.6,-3.2,-3.2
352.8,-1.6,-3.2,-3.2
352.90000000000003,-1.6,-3.2,-3.2
353.0,-1.6,-3.2,-3.2
353.1,-1.6,-3.2,-3.2
353.20000000000005,-1.6,-3.2,-3.2
353.3,-1.6,-3.2,-3.2
353.40000000000003,-1.6,-3.2,-3.2
353.5,-1.6,-3.2,-3.2
353.6,-1.6,-3.2,-3.2
353.70000000000005,-1.6,-3.2,-3.2
353.8,-1.6,-3.2,-3.2
353.90000000000003,-1.6,-3.2,-3.2
354.0,-1.6,-3.2,-3.2
354.1,-1.6,-3.2,-3.2
354.20000000000005,-1.6,-3.2,-3.2
354.3,-1.6,-3.2,-3.2
354.40000000000003,-1.6,-3.2,-3.2
354.5,-1.6,-3.2,-3.2
354.6,-1.6,-3.2,-3.2
354.70000000000005,-1.6,-3.2,-3.2
354.8,-1.6,-3.2,-3.2
354.90000000000003,-1.6,-3.2,-3.2
355.0,-1.6,-3.2,-3.2
355.1,-1.6,-3.2,-3.2
355.20000000000005,-1.6,-3.2,-3.2
355.3,-1.6,-3.2,-3.2
355.40000000000003,-1.6,-3.2,-3.2
355.5,-1.6,-3.2,-3.2
355.6,-1.6,-3.2,-3.2
355.70000000000005,-1.6,-3.2,-3.2
355.8,-1.6,-3.2,-3.2
355.90000000000003,-1.6,-3.2,-3.2
356.0,-1.6,-3.2,-3.2
356.1,-1.6,-3.2,-3.2
356.20000000000005,-1.6,-3.2,-3.2
356.3,-1.6,-3.2,-3.2
356.40000000000003,-1.6,-3.2,-3.2
356.5,-1.6,-3.2,-3.2
356.6,-1.6,-3.2,-3.2
356.70000000000005,-1.6,-3.2,-3.2
356.8,-1.6,-3.2,-3.2
356.90000000000003,-1.6,-3.2,-3.2
357.0,-1.6,-3.2,-3.2
357.1,-1.6,-3.2,-3.2
357.20000000000005,-1.6,-3.2,-3.2
357.3,-1.6,-3.2,-3.2
357.40000000000003,-1.6,-3.2,-3.2
357.5,-1.6,-3.2,-3.2
357.6,-1.6,-3.2,-3.2
357.70000000000005,-1.6,-3.2,-3.2
357.8,-1.6,-3.2,-3.2
357.90000000000003,-1.6,-3.2,-3.2
358.0,-1.6,-3.2,-3.2
358.1,-1.6,-3.2,-3.2
358.20000000000005,-1.6,-3.2,-4.0
358.3,-1.6,-3.2,-3.2
358.40000000000003,-1.6,-3.2,-3.2
358.5,-1.6,-3.2,-3.2
358.6,-1.6,-3.2,-3.2
358.70000000000005,-1.6,-3.2,-3.2
358.8,-1.6,-3.2,-3.2
358.90000000000003,-1.6,-3.2,-3.2
359.0,-1.6,-3.2,-3.2
359.1,-1.6,-3.2,-3.2
359.20000000000005,-1.6,-3.2,-3.2
359.3,-1.6,-3.2,-3.2
359.40000000000003,-1.6,-3.2,-3.2
359.5,-1.6,-3.2,-3.2
359.6,-1.6,-3.2,-3.2
359.70000000000005,-1.6,-3.2,-3.2
359.8,-1.6,-3.2,-3.2
359.90000000000003,-1.6,-3.2,-3.2
360.0,-1.6,-3.2,-3.2
360.1,-1.6,-3.2,-3.2
360.20000000000005,-1.6,-3.2,-3.2
360.3,-1.6,-3.2,-3.2
360.40000000000003,-1.6,-3.2,-3.2
360.5,-1.6,-3.2,-3.2
360.6,-1.6,-3.2,-3.2
360.70000000000005,-1.6,-3.2,-3.2
360.8,-1.6,-3.2,-3.2
360.90000000000003,-1.6,-3.2,-3.2
361.0,-1.6,-3.2,-3.2
361.1,-1.6,-3.2,-3.2
361.20000000000005,-1.6,-3.2,-3.2
361.3,-1.6,-3.2,-3.2
361.40000000000003,-1.6,-3.2,-3.2
361.5,-1.6,-3.2,-3.2
361.6,-1.6,-3.2,-3.2
361.70000000000005,-1.6,-3.2,-3.2
361.8,-1.6,-3.2,-3.2
361.90000000000003,-1.6,-3.2,-3.2
362.0,-1.6,-3.2,-3.2
362.1,-1.6,-3.2,-3.2
362.20000000000005,-1.6,-3.2,-3.2
362.3,-1.6,-3.2,-3.2
362.40000000000003,-1.6,-3.2,-3.2
362.5,-1.6,-3.2,-3.2
362.6,-1.6,-3.2,-3.2
362.70000000000005,-1.6,-3.2,-3.2
362.8,-1.6,-3.2,-3.2
362.90000000000003,-1.6,-3.2,-3.2
363.0,-1.6,-3.2,-3.2
363.1,-1.6,-3.2,-3.2
363.20000000000005,-1.6,-3.2,-3.2
363.3,-1.6,-3.2,-3.2
363.40000000000003,-1.6,-3.2,-3.2
363.5,-1.6,-3.2,-3.2
363.6,-1.6,-3.2,-3.2
363.70000000000005,-1.6,-3.2,-3.2
363.8,-1.6,-3.2,-3.2
363.90000000000003,-1.6,-3.2,-3.2
364.0,-1.6,-3.2,-3.2
364.1,-1.6,-3.2,-3.2
364.20000000000005,-1.6,-3.2,-3.2
364.3,-1.6,-3.2,-3.2
364.40000000000003,-1.6,-3.2,-3.2
364.5,-1.6,-3.2,-3.2
364.6,-1.6,-3.2,-3.2
364.70000000000005,-1.6,-3.2,-3.2
364.8,-1.6,-3.2,-3.2
364.90000000000003,-1.6,-3.2,-3.2
365.0,-1.6,-3.2,-3.2
365.1,-1.6,-3.2,-3.2
365.20000000000005,-1.6,-3.2,-3.2
365.3,-1.6,-3.2,-3.2
365.40000000000003,-1.6,-3.2,-3.2
365.5,-1.6,-3.2,-3.2
365.6,-1.6,-3.2,-3.2
365.70000000000005,-1.6,-3.2,-3.2
365.8,-1.6,-3.2,-3.2
365.90000000000003,-1.6,-3.2,-3.2
366.0,-1.6,-3.2,-3.2
366.1,-1.6,-3.2,-3.2
366.20000000000005,-1.6,-3.2,-3.2
366.3,-1.6,-3.2,-3.2
366.40000000000003,-1.6,-3.2,-3.2
